ax,ay,az,gx,gy,gz,mx,my,mz
-0.988,0.172,0.182,-4.2,-0.84,3.22,-0.22,-0.276,-0.896
-0.975,0.162,0.188,-3.78,0.49,5.25,-0.22,-0.278,-0.897
-0.972,0.168,0.194,-2.8,0.77,7.21,-0.222,-0.275,-0.898
-0.964,0.176,0.2,-1.05,1.4,9.31,-0.221,-0.276,-0.902
-0.958,0.18,0.196,1.26,2.17,10.57,-0.216,-0.277,-0.903
-0.954,0.174,0.2,3.01,2.87,11.41,-0.222,-0.27,-0.903
-0.935,0.15,0.202,0.84,4.34,10.57,-0.22,-0.272,-0.905
-0.912,0.139,0.198,-4.48,5.6,9.17,-0.22,-0.269,-0.911
-0.896,0.139,0.195,-10.5,6.02,7.63,-0.227,-0.265,-0.907
-0.899,0.146,0.193,-14.98,5.67,6.93,-0.23,-0.267,-0.908
-0.941,0.156,0.206,-16.8,2.94,7.7,-0.225,-0.263,-0.904
-1.0,0.154,0.221,-17.36,2.03,8.89,-0.229,-0.263,-0.91
-1.026,0.131,0.219,-17.99,4.62,10.57,-0.232,-0.261,-0.914
-1.011,0.129,0.225,-21.0,5.25,11.2,-0.23,-0.258,-0.916
-1.0,0.129,0.244,-24.5,3.43,11.34,-0.232,-0.253,-0.912
-0.991,0.126,0.245,-28.0,1.82,11.41,-0.23,-0.249,-0.915
-0.983,0.132,0.251,-31.85,0.28,10.08,-0.231,-0.244,-0.914
-0.958,0.135,0.268,-31.15,1.05,9.73,-0.232,-0.243,-0.913
-0.944,0.11,0.331,-32.83,2.59,9.24,-0.234,-0.233,-0.91
-0.907,0.137,0.303,-41.02,6.58,8.96,-0.231,-0.23,-0.916
-0.877,0.195,0.301,-41.58,7.07,3.22,-0.233,-0.222,-0.916
-0.868,0.156,0.307,-30.24,8.12,7.98,-0.231,-0.223,-0.913
-0.869,0.139,0.296,-33.39,8.19,6.72,-0.232,-0.221,-0.914
-0.879,0.172,0.27,-38.85,8.4,5.6,-0.231,-0.22,-0.915
-0.897,0.193,0.257,-33.81,7.63,6.58,-0.233,-0.219,-0.914
-0.93,0.155,0.294,-31.08,6.86,8.61,-0.234,-0.215,-0.908
-0.938,0.186,0.263,-38.71,7.77,8.89,-0.229,-0.216,-0.911
-0.927,0.242,0.231,-40.53,8.68,5.6,-0.231,-0.211,-0.912
-0.898,0.273,0.212,-17.57,4.9,8.75,-0.233,-0.208,-0.902
-0.889,0.202,0.225,-0.21,1.19,11.62,-0.231,-0.208,-0.903
-0.878,0.12,0.253,-0.56,-0.7,13.65,-0.238,-0.205,-0.898
-0.864,0.104,0.255,-17.71,-0.7,11.27,-0.236,-0.201,-0.898
-0.849,0.17,0.238,-34.79,-0.21,6.72,-0.231,-0.203,-0.895
-0.846,0.244,0.278,-33.88,-0.84,3.01,-0.237,-0.203,-0.898
-0.842,0.238,0.256,-25.34,-0.14,3.85,-0.233,-0.202,-0.895
-0.836,0.204,0.258,-20.37,-0.14,4.97,-0.236,-0.201,-0.89
-0.84,0.193,0.258,-21.21,-1.89,5.32,-0.234,-0.198,-0.889
-0.86,0.199,0.25,-22.47,-3.64,6.02,-0.231,-0.2,-0.882
-0.884,0.209,0.259,-21.84,-5.53,7.28,-0.238,-0.195,-0.892
-0.889,0.218,0.269,-20.37,-4.97,8.96,-0.235,-0.191,-0.884
-0.85,0.226,0.274,-17.01,-3.71,10.92,-0.24,-0.192,-0.885
-0.825,0.224,0.259,-14.35,-4.83,11.69,-0.233,-0.191,-0.883
-0.823,0.227,0.252,-11.76,-7.07,12.11,-0.234,-0.19,-0.881
-0.842,0.236,0.266,-7.56,-9.38,12.88,-0.236,-0.19,-0.879
-0.852,0.244,0.284,-2.45,-9.38,13.93,-0.234,-0.183,-0.879
-0.843,0.238,0.279,2.73,-8.05,14.7,-0.234,-0.183,-0.882
-0.837,0.201,0.275,9.17,-8.89,15.12,-0.234,-0.182,-0.878
-0.833,0.175,0.267,9.1,-8.47,14.91,-0.236,-0.18,-0.877
-0.822,0.157,0.243,5.74,-7.21,13.86,-0.236,-0.178,-0.875
-0.835,0.148,0.188,1.82,-8.26,13.16,-0.234,-0.174,-0.876
-0.962,0.181,0.237,2.31,-17.22,14.49,-0.231,-0.174,-0.874
-1.078,0.198,0.318,5.32,-18.9,15.89,-0.231,-0.175,-0.869
-0.921,0.106,0.219,5.18,4.13,15.26,-0.232,-0.175,-0.87
-0.799,0.068,0.149,-0.49,2.73,12.53,-0.231,-0.173,-0.869
-0.817,0.076,0.143,-7.98,-6.72,9.66,-0.233,-0.171,-0.872
-0.907,0.079,0.146,-12.6,-10.78,7.49,-0.237,-0.172,-0.868
-0.992,0.096,0.158,-13.02,-10.43,6.3,-0.234,-0.167,-0.864
-1.062,0.118,0.163,-3.92,-7.0,5.04,-0.235,-0.168,-0.862
-1.149,0.126,0.151,4.2,-3.15,4.2,-0.234,-0.172,-0.862
-1.142,0.073,0.109,11.62,3.71,3.01,-0.237,-0.172,-0.863
-1.075,0.004,0.064,11.27,10.64,0.14,-0.236,-0.173,-0.856
-0.997,-0.037,0.027,2.94,12.88,-4.27,-0.233,-0.175,-0.864
-0.97,-0.033,0.027,-7.49,8.4,-11.62,-0.233,-0.17,-0.868
-1.009,-0.005,0.061,-17.01,0.35,-16.66,-0.238,-0.174,-0.866
-1.034,-0.006,0.074,-16.73,-1.61,-19.81,-0.237,-0.177,-0.868
-1.05,-0.027,0.073,-14.49,-1.96,-21.21,-0.236,-0.178,-0.863
-1.063,-0.047,0.064,-13.79,-1.61,-19.32,-0.238,-0.184,-0.866
-1.07,-0.048,0.064,-14.35,0.07,-13.93,-0.234,-0.183,-0.868
-1.048,-0.022,0.057,-15.96,3.78,-10.15,-0.238,-0.188,-0.866
-0.976,0.01,0.043,-10.01,5.11,-5.88,-0.235,-0.189,-0.867
-0.964,0.027,0.049,-1.82,1.54,-3.43,-0.237,-0.187,-0.865
-1.005,0.039,0.075,5.53,-2.66,-1.68,-0.235,-0.186,-0.869
-1.058,0.053,0.11,10.92,-4.83,0.35,-0.236,-0.193,-0.865
-1.074,0.062,0.123,16.73,-4.83,2.52,-0.235,-0.192,-0.865
-1.086,0.07,0.115,17.5,-5.67,2.31,-0.234,-0.189,-0.865
-1.095,0.06,0.109,16.17,-6.02,1.47,-0.238,-0.19,-0.868
-1.089,0.047,0.105,12.74,-3.99,0.07,-0.235,-0.19,-0.861
-1.071,0.049,0.11,9.24,-2.73,-0.42,-0.235,-0.194,-0.864
-1.083,0.074,0.12,5.95,-3.5,-0.77,-0.231,-0.194,-0.863
-1.103,0.091,0.135,5.18,-3.57,-0.91,-0.236,-0.193,-0.867
-1.076,0.088,0.134,7.35,-1.82,-0.7,-0.236,-0.194,-0.862
-1.047,0.07,0.12,7.7,-2.31,-0.91,-0.233,-0.191,-0.864
-1.054,0.07,0.122,6.37,-4.48,-0.7,-0.236,-0.191,-0.861
-1.096,0.082,0.136,6.51,-7.35,0.42,-0.232,-0.191,-0.867
-1.142,0.104,0.154,9.52,-8.12,2.52,-0.236,-0.192,-0.862
-1.152,0.106,0.166,18.13,-5.25,5.11,-0.235,-0.194,-0.865
-1.104,0.101,0.157,23.31,-4.55,6.23,-0.238,-0.192,-0.861
-1.084,0.088,0.153,27.51,-6.16,6.51,-0.235,-0.195,-0.864
-1.087,0.079,0.161,30.66,-7.91,6.93,-0.236,-0.19,-0.86
-1.097,0.078,0.175,31.5,-9.17,6.93,-0.233,-0.196,-0.86
-1.107,0.084,0.184,33.67,-9.45,7.98,-0.236,-0.195,-0.858
-1.14,0.082,0.193,38.92,-9.31,10.22,-0.233,-0.195,-0.86
-1.162,0.078,0.199,40.6,-7.49,11.34,-0.235,-0.195,-0.863
-1.17,0.072,0.197,40.53,-5.04,11.9,-0.235,-0.194,-0.87
-1.166,0.065,0.193,38.15,-3.29,11.62,-0.236,-0.192,-0.866
-1.148,0.052,0.178,34.51,-2.03,10.15,-0.232,-0.193,-0.867
-1.134,0.055,0.206,32.97,-2.66,5.25,-0.238,-0.19,-0.865
-1.082,0.047,0.22,36.4,-5.18,1.12,-0.236,-0.191,-0.866
-1.076,0.033,0.235,41.86,-8.68,-0.91,-0.232,-0.193,-0.867
-1.105,-0.006,0.264,48.44,-11.06,-0.35,-0.232,-0.196,-0.864
-1.128,-0.026,0.262,51.45,-7.56,2.66,-0.238,-0.2,-0.863
-1.123,-0.042,0.247,49.0,-3.36,5.6,-0.235,-0.204,-0.869
-1.086,-0.051,0.223,38.29,3.78,7.49,-0.235,-0.205,-0.876
-1.048,-0.066,0.206,31.01,7.98,9.45,-0.234,-0.204,-0.872
-1.014,-0.071,0.188,22.96,10.78,9.66,-0.233,-0.207,-0.872
-1.019,-0.032,0.164,15.54,10.08,8.68,-0.239,-0.2,-0.881
-1.053,0.0,0.158,14.49,9.8,8.4,-0.234,-0.199,-0.88
-1.059,0.0,0.144,19.32,14.28,10.64,-0.233,-0.198,-0.881
-1.023,-0.025,0.124,25.97,16.45,13.3,-0.233,-0.198,-0.875
-1.016,-0.043,0.122,24.36,12.74,14.14,-0.24,-0.197,-0.885
-1.017,-0.043,0.114,19.39,9.94,14.49,-0.231,-0.194,-0.889
-0.989,-0.044,0.095,16.1,8.12,14.28,-0.236,-0.195,-0.893
-0.959,-0.02,0.076,14.98,6.09,13.58,-0.233,-0.194,-0.894
-0.957,0.007,0.092,34.51,-0.07,12.6,-0.238,-0.194,-0.892
-0.953,0.053,0.118,24.78,-0.84,12.11,-0.236,-0.188,-0.889
-0.953,0.059,0.115,33.18,-2.03,12.04,-0.237,-0.188,-0.895
-0.989,0.036,0.13,37.73,-4.83,13.09,-0.238,-0.188,-0.891
-1.016,-0.001,0.138,34.58,-4.13,13.37,-0.239,-0.19,-0.893
-0.981,-0.029,0.131,23.8,0.42,11.06,-0.238,-0.183,-0.896
-0.905,-0.039,0.112,8.05,3.64,6.93,-0.239,-0.183,-0.896
-0.844,0.028,0.096,-12.39,-0.98,-0.7,-0.236,-0.189,-0.892
-0.87,0.087,0.108,-16.38,-6.51,-4.9,-0.236,-0.189,-0.895
-0.913,0.115,0.128,-11.9,-10.22,-7.56,-0.24,-0.189,-0.895
-0.915,0.091,0.117,-3.92,-8.75,-9.1,-0.24,-0.191,-0.891
-0.907,0.055,0.109,2.59,-11.69,-9.31,-0.239,-0.189,-0.897
-0.94,0.045,0.153,2.45,-14.7,-8.75,-0.241,-0.189,-0.888
-0.972,0.053,0.161,3.01,-13.09,-8.26,-0.238,-0.19,-0.892
-0.958,0.037,0.157,4.2,-12.04,-8.68,-0.241,-0.189,-0.892
-0.967,0.019,0.159,3.71,-14.42,-9.03,-0.238,-0.188,-0.891
-1.0,0.032,0.172,0.07,-15.89,-10.5,-0.24,-0.191,-0.886
-1.012,0.022,0.194,-3.01,-15.4,-12.81,-0.235,-0.2,-0.88
-0.983,0.013,0.191,-5.32,-13.3,-16.24,-0.235,-0.201,-0.879
-0.97,0.023,0.185,-6.09,-17.36,-19.95,-0.235,-0.202,-0.876
-0.997,0.009,0.191,-3.36,-18.9,-20.86,-0.238,-0.204,-0.872
-1.001,-0.004,0.189,-0.56,-15.61,-19.46,-0.235,-0.209,-0.873
-0.996,-0.016,0.179,-1.54,-13.02,-18.62,-0.228,-0.213,-0.867
-1.017,0.011,0.171,-7.35,-14.0,-16.59,-0.23,-0.213,-0.87
-1.073,0.062,0.169,-31.64,-16.59,-17.85,-0.231,-0.213,-0.865
-1.117,0.202,0.214,-51.52,-13.44,-24.01,-0.231,-0.216,-0.866
-1.08,0.296,0.159,-42.07,-8.75,-27.79,-0.233,-0.217,-0.864
-1.023,0.244,0.143,-5.04,-8.54,-22.75,-0.231,-0.218,-0.864
-0.994,0.105,0.141,28.14,-10.15,-19.11,-0.227,-0.23,-0.863
-0.984,-0.026,0.149,33.32,-10.22,-22.12,-0.227,-0.227,-0.862
-0.969,-0.078,0.17,7.84,-7.35,-20.65,-0.224,-0.234,-0.855
-0.975,-0.029,0.188,-8.82,-7.28,-16.52,-0.226,-0.232,-0.857
-1.025,0.034,0.182,-17.99,-8.05,-12.6,-0.225,-0.233,-0.857
-1.074,0.083,0.152,-19.53,-6.79,-11.2,-0.222,-0.233,-0.859
-1.088,0.082,0.123,-13.44,-4.69,-10.22,-0.22,-0.24,-0.854
-1.05,0.034,0.116,-5.04,-2.38,-8.26,-0.22,-0.24,-0.849
-0.997,-0.006,0.103,-1.12,-1.75,-6.16,-0.223,-0.237,-0.852
-0.991,-0.003,0.106,-3.99,-6.02,-4.69,-0.222,-0.239,-0.854
-1.037,0.018,0.102,-7.7,-6.58,-4.41,-0.217,-0.239,-0.854
-1.043,0.025,0.087,-11.97,-4.9,-4.34,-0.218,-0.242,-0.856
-1.032,0.032,0.082,-14.98,-3.5,-2.38,-0.215,-0.245,-0.852
-1.021,0.038,0.081,-16.87,-3.43,-0.14,-0.222,-0.241,-0.855
-1.023,0.044,0.088,-18.48,-4.55,1.47,-0.22,-0.237,-0.849
-1.035,0.065,0.087,-16.17,-6.72,4.27,-0.217,-0.24,-0.849
-1.075,0.082,0.087,-9.94,-8.19,6.65,-0.221,-0.232,-0.851
-1.094,0.092,0.099,-4.55,-7.42,9.24,-0.219,-0.231,-0.845
-1.087,0.106,0.092,-0.84,-5.04,9.59,-0.213,-0.235,-0.843
-1.074,0.118,0.091,1.61,-4.55,9.66,-0.221,-0.23,-0.844
-1.074,0.115,0.11,4.13,-5.46,8.96,-0.22,-0.234,-0.847
-1.053,0.109,0.125,1.82,-5.25,7.49,-0.22,-0.229,-0.842
-1.033,0.106,0.119,-3.36,-5.67,4.97,-0.221,-0.226,-0.845
-1.031,0.106,0.118,-9.45,-6.51,3.15,-0.22,-0.228,-0.845
-1.046,0.109,0.112,-14.28,-7.28,2.24,-0.22,-0.226,-0.837
-1.062,0.114,0.126,-15.33,-6.72,2.66,-0.221,-0.228,-0.842
-1.063,0.131,0.134,-14.7,-3.57,4.13,-0.223,-0.226,-0.837
-1.055,0.135,0.144,-7.98,-2.73,6.58,-0.221,-0.22,-0.838
-1.067,0.112,0.136,-1.68,-1.89,9.24,-0.22,-0.226,-0.84
-1.079,0.081,0.141,1.96,-0.56,11.55,-0.221,-0.223,-0.84
-1.075,0.034,0.132,2.45,2.66,13.37,-0.224,-0.22,-0.843
-1.066,0.003,0.123,-0.63,4.97,15.96,-0.227,-0.22,-0.843
-1.078,-0.005,0.111,-7.0,5.11,17.85,-0.223,-0.216,-0.841
-1.128,0.024,0.105,-18.9,6.16,18.2,-0.226,-0.214,-0.84
-1.14,0.049,0.102,-23.66,8.96,17.5,-0.224,-0.21,-0.842
-1.125,0.057,0.088,-24.01,12.11,17.01,-0.224,-0.205,-0.842
-1.111,0.062,0.078,-22.19,11.34,15.54,-0.225,-0.205,-0.846
-1.115,0.074,0.076,-21.35,9.1,12.46,-0.224,-0.203,-0.845
-1.114,0.088,0.035,-16.31,9.24,7.91,-0.231,-0.202,-0.849
-1.113,0.103,0.051,-11.06,8.54,4.97,-0.23,-0.2,-0.849
-1.135,0.094,0.054,-5.95,7.84,2.03,-0.228,-0.199,-0.849
-1.138,0.071,0.054,-2.31,9.38,-0.49,-0.226,-0.196,-0.855
-1.112,0.029,0.042,-2.38,11.9,-3.71,-0.227,-0.191,-0.852
-1.076,0.007,0.035,-6.79,12.6,-5.6,-0.228,-0.198,-0.858
-1.052,0.007,0.001,-16.59,11.69,-9.38,-0.231,-0.198,-0.853
-1.042,0.046,0.025,-18.13,10.36,-10.57,-0.23,-0.197,-0.857
-1.068,0.057,0.029,-14.77,8.61,-10.92,-0.232,-0.199,-0.852
-1.092,0.061,0.037,-9.59,9.24,-10.08,-0.231,-0.201,-0.856
-1.076,0.042,0.03,-5.6,12.18,-9.87,-0.234,-0.196,-0.862
-1.039,0.028,0.016,-3.29,12.46,-9.8,-0.232,-0.201,-0.861
-1.041,0.041,0.04,-5.53,9.24,-13.23,-0.231,-0.211,-0.874
-1.019,0.06,0.038,-4.55,7.77,-14.35,-0.229,-0.208,-0.869
-1.038,0.061,0.043,-1.26,4.76,-14.63,-0.228,-0.21,-0.868
-1.067,0.058,0.053,3.43,5.32,-14.0,-0.232,-0.207,-0.878
-1.057,0.043,0.06,7.56,8.26,-14.56,-0.232,-0.216,-0.881
-1.036,0.035,0.06,9.24,9.52,-14.49,-0.232,-0.216,-0.877
-1.026,0.034,0.061,7.98,9.59,-15.54,-0.232,-0.219,-0.885
-1.03,0.027,0.072,6.23,8.75,-16.31,-0.23,-0.221,-0.888
-1.046,0.022,0.088,4.9,7.7,-16.31,-0.227,-0.224,-0.885
-1.054,0.015,0.094,2.24,8.12,-16.66,-0.229,-0.224,-0.89
-1.067,0.015,0.088,-1.33,9.66,-15.61,-0.23,-0.225,-0.897
-1.09,0.026,0.095,-2.38,10.64,-14.77,-0.23,-0.224,-0.896
-1.106,0.039,0.094,-1.96,12.39,-13.44,-0.227,-0.231,-0.901
-1.106,0.038,0.09,-0.77,14.07,-13.37,-0.225,-0.229,-0.899
-1.087,0.041,0.086,0.28,15.61,-14.21,-0.224,-0.235,-0.898
-1.071,0.039,0.081,1.19,15.4,-15.4,-0.227,-0.235,-0.898
-1.058,0.028,0.094,0.91,14.77,-17.43,-0.228,-0.238,-0.9
-1.007,0.012,0.103,-3.71,16.45,-18.97,-0.224,-0.236,-0.906
-0.972,0.019,0.107,-7.98,15.82,-20.44,-0.226,-0.239,-0.908
-0.936,0.029,0.129,-11.55,15.82,-22.54,-0.226,-0.241,-0.907
-0.884,0.04,0.134,-14.98,17.43,-24.29,-0.226,-0.241,-0.911
-0.83,0.056,0.15,-16.52,17.57,-25.69,-0.222,-0.249,-0.914
-0.801,0.002,0.094,-22.33,14.77,-27.79,-0.228,-0.249,-0.919
-0.829,-0.031,0.076,-34.79,11.27,-31.64,-0.227,-0.251,-0.915
-0.79,-0.01,0.105,-52.78,12.11,-38.22,-0.224,-0.258,-0.918
-0.667,0.092,0.136,-67.41,14.84,-43.61,-0.222,-0.262,-0.917
-0.56,0.215,0.193,-67.34,8.12,-42.56,-0.224,-0.265,-0.921
-0.545,0.35,0.268,-39.97,-8.05,-28.07,-0.224,-0.268,-0.916
-0.611,0.379,0.33,-11.48,-16.17,-13.72,-0.221,-0.274,-0.909
-0.675,0.365,0.363,10.85,-15.54,-0.77,-0.22,-0.274,-0.911
-0.701,0.334,0.371,23.31,-9.94,9.03,-0.216,-0.271,-0.916
-0.719,0.327,0.35,29.12,-4.55,19.11,-0.222,-0.27,-0.902
-0.755,0.327,0.348,28.77,-3.22,33.25,-0.222,-0.268,-0.912
-0.832,0.286,0.35,20.93,-4.34,39.62,-0.224,-0.263,-0.91
-0.894,0.278,0.368,6.79,-4.97,43.54,-0.221,-0.256,-0.905
-0.943,0.299,0.376,-10.5,-3.22,43.47,-0.227,-0.253,-0.904
-0.959,0.328,0.381,-27.16,-0.28,40.95,-0.226,-0.251,-0.903
-0.957,0.383,0.37,-36.47,1.19,38.85,-0.226,-0.244,-0.908
-0.957,0.437,0.358,-37.59,-2.59,31.71,-0.227,-0.238,-0.901
-0.972,0.465,0.368,-27.02,-3.85,24.57,-0.23,-0.232,-0.901
-0.963,0.46,0.375,-16.45,-3.36,16.8,-0.233,-0.226,-0.898
-0.954,0.443,0.363,-5.32,-4.06,8.96,-0.234,-0.227,-0.897
-0.964,0.439,0.357,6.02,-6.3,1.82,-0.23,-0.223,-0.902
-0.983,0.406,0.389,15.4,-6.23,-8.12,-0.23,-0.227,-0.904
-0.956,0.349,0.415,14.7,-1.82,-13.93,-0.229,-0.231,-0.903
-0.905,0.314,0.4,8.54,2.1,-20.65,-0.233,-0.232,-0.904
-0.871,0.297,0.38,0.28,2.87,-26.11,-0.232,-0.236,-0.91
-0.869,0.294,0.351,-7.0,1.19,-29.75,-0.229,-0.237,-0.903
-0.886,0.29,0.331,-14.84,2.45,-33.18,-0.224,-0.241,-0.908
-0.89,0.271,0.302,-19.74,7.14,-35.07,-0.227,-0.245,-0.909
-0.868,0.272,0.271,-23.59,9.73,-36.4,-0.224,-0.255,-0.909
-0.859,0.28,0.251,-24.85,7.42,-36.89,-0.224,-0.253,-0.914
-0.872,0.278,0.251,-23.38,3.64,-35.98,-0.224,-0.259,-0.919
-0.881,0.268,0.248,-20.23,1.26,-34.37,-0.223,-0.266,-0.912
-0.855,0.245,0.241,-18.41,0.28,-32.06,-0.224,-0.272,-0.911
-0.825,0.241,0.224,-16.73,-1.61,-28.7,-0.221,-0.275,-0.916
-0.806,0.238,0.207,-14.14,-4.69,-23.8,-0.221,-0.277,-0.914
-0.806,0.236,0.194,-9.38,-8.82,-17.57,-0.218,-0.286,-0.915
-0.82,0.233,0.195,-3.99,-12.53,-10.01,-0.217,-0.288,-0.911
-0.835,0.229,0.2,4.62,-16.59,0.77,-0.214,-0.286,-0.915
-0.848,0.222,0.203,9.52,-18.2,8.47,-0.22,-0.284,-0.912
-0.852,0.217,0.199,13.79,-19.81,15.4,-0.216,-0.291,-0.904
-0.86,0.214,0.192,17.22,-22.26,21.49,-0.213,-0.283,-0.902
-0.872,0.215,0.192,19.6,-24.29,26.67,-0.217,-0.285,-0.895
-0.893,0.226,0.198,21.91,-26.95,30.8,-0.22,-0.28,-0.892
-0.931,0.252,0.215,27.23,-30.8,36.05,-0.217,-0.276,-0.893
-0.953,0.269,0.218,33.18,-32.62,38.15,-0.213,-0.275,-0.894
-0.982,0.278,0.213,41.02,-34.3,39.41,-0.22,-0.268,-0.89
-1.031,0.286,0.224,49.84,-36.54,40.32,-0.223,-0.266,-0.882
-1.072,0.294,0.242,58.52,-36.26,39.97,-0.22,-0.257,-0.885
-1.057,0.294,0.247,65.59,-31.57,37.17,-0.223,-0.26,-0.881
-0.971,0.271,0.224,72.659,-26.53,29.33,-0.227,-0.256,-0.882
-0.939,0.242,0.208,73.149,-27.72,22.82,-0.224,-0.257,-0.879
-0.943,0.198,0.201,69.58,-29.61,16.45,-0.223,-0.252,-0.883
-0.97,0.162,0.204,60.97,-29.82,11.2,-0.219,-0.255,-0.879
-1.001,0.151,0.216,49.35,-28.0,5.18,-0.221,-0.257,-0.876
-1.028,0.157,0.225,32.9,-22.89,5.25,-0.221,-0.258,-0.874
-1.06,0.186,0.233,25.48,-18.97,7.35,-0.219,-0.261,-0.876
-1.068,0.201,0.239,20.16,-14.63,10.36,-0.216,-0.255,-0.877
-1.061,0.219,0.242,17.01,-10.15,14.42,-0.215,-0.255,-0.874
-1.036,0.226,0.238,14.07,-5.67,18.34,-0.219,-0.257,-0.877
-1.001,0.223,0.227,11.48,-1.82,21.07,-0.221,-0.251,-0.873
-0.975,0.225,0.216,3.92,2.17,20.93,-0.223,-0.245,-0.873
-0.958,0.235,0.213,-1.89,4.06,18.97,-0.22,-0.253,-0.878
-0.951,0.239,0.204,-6.93,6.44,16.38,-0.228,-0.242,-0.879
-0.95,0.246,0.195,-11.55,7.84,12.88,-0.226,-0.241,-0.882
-0.962,0.257,0.192,-15.54,8.19,8.89,-0.224,-0.238,-0.875
-0.978,0.27,0.193,-18.13,9.1,5.39,-0.221,-0.234,-0.876
-0.984,0.274,0.192,-19.11,10.99,0.91,-0.225,-0.233,-0.882
-0.978,0.265,0.162,-19.6,11.62,-1.75,-0.224,-0.237,-0.886
-0.981,0.254,0.134,-20.58,11.41,-4.48,-0.225,-0.233,-0.895
-0.992,0.256,0.128,-21.56,10.22,-6.79,-0.22,-0.235,-0.889
-0.997,0.253,0.109,-21.77,11.2,-9.1,-0.228,-0.231,-0.89
-1.006,0.245,0.104,-20.09,9.45,-9.94,-0.229,-0.234,-0.885
-1.003,0.228,0.127,-16.87,10.01,-11.41,-0.226,-0.234,-0.887
-0.946,0.233,0.111,-16.59,10.71,-12.6,-0.228,-0.241,-0.887
-0.936,0.248,0.094,-14.14,7.28,-13.3,-0.227,-0.238,-0.886
-0.969,0.252,0.095,-9.31,4.06,-14.28,-0.229,-0.243,-0.896
-0.992,0.238,0.104,-5.18,3.36,-14.77,-0.226,-0.239,-0.891
-0.984,0.221,0.114,-3.36,3.99,-15.19,-0.228,-0.248,-0.888
-0.962,0.241,0.123,-3.92,1.05,-14.98,-0.225,-0.248,-0.895
-0.959,0.268,0.13,-1.05,-1.26,-14.63,-0.224,-0.249,-0.887
-0.949,0.276,0.132,5.67,-2.38,-14.49,-0.223,-0.252,-0.891
-0.938,0.27,0.133,13.51,-3.15,-14.7,-0.227,-0.254,-0.891
-0.934,0.248,0.13,19.95,-4.55,-15.4,-0.223,-0.256,-0.899
-0.946,0.214,0.135,25.2,-5.6,-14.91,-0.226,-0.26,-0.893
-0.97,0.156,0.144,24.08,-5.25,-13.44,-0.223,-0.26,-0.895
-0.978,0.104,0.143,21.35,-4.97,-11.2,-0.221,-0.261,-0.9
-1.006,0.062,0.159,17.78,-6.02,-5.81,-0.224,-0.262,-0.897
-1.044,0.041,0.184,10.71,-5.67,-0.98,-0.221,-0.269,-0.897
-1.057,0.037,0.186,0.42,-2.1,3.78,-0.219,-0.267,-0.9
-1.054,0.072,0.176,-13.93,2.31,10.29,-0.222,-0.265,-0.896
-1.038,0.122,0.184,-19.11,5.18,12.95,-0.223,-0.264,-0.9
-0.999,0.164,0.175,-20.09,8.61,12.95,-0.224,-0.264,-0.899
-0.952,0.179,0.159,-18.97,9.1,9.1,-0.223,-0.26,-0.897
-0.933,0.186,0.146,-15.19,6.44,4.69,-0.227,-0.258,-0.9
-0.948,0.184,0.134,-10.5,3.08,0.07,-0.227,-0.254,-0.896
-0.977,0.182,0.132,-6.09,0.49,-4.2,-0.23,-0.26,-0.897
-1.003,0.185,0.139,0.07,-0.35,-6.93,-0.225,-0.26,-0.901
-1.02,0.175,0.142,6.51,-0.77,-5.32,-0.224,-0.266,-0.891
-1.023,0.156,0.147,12.11,-0.98,-2.73,-0.22,-0.265,-0.899
-1.024,0.126,0.151,14.21,-1.61,1.61,-0.22,-0.265,-0.896
-1.019,0.094,0.159,13.72,-1.75,7.28,-0.221,-0.263,-0.896
-1.005,0.064,0.164,9.66,-1.75,13.44,-0.222,-0.262,-0.901
-0.992,0.039,0.183,-1.4,-1.12,22.89,-0.223,-0.256,-0.907
-0.978,0.03,0.193,-11.55,0.63,27.79,-0.226,-0.255,-0.908
-0.967,0.035,0.188,-23.31,3.08,31.08,-0.23,-0.247,-0.898
-0.954,0.061,0.178,-33.81,5.95,33.18,-0.229,-0.24,-0.906
-0.954,0.107,0.177,-40.32,7.63,34.37,-0.231,-0.236,-0.903
-0.969,0.16,0.194,-42.07,9.17,33.95,-0.232,-0.232,-0.906
-0.991,0.223,0.198,-34.72,10.29,32.2,-0.23,-0.225,-0.907
-1.006,0.243,0.196,-24.99,9.87,29.61,-0.233,-0.217,-0.91
-1.024,0.235,0.192,-14.98,9.8,25.9,-0.238,-0.213,-0.911
-1.038,0.217,0.19,-8.61,9.87,21.77,-0.237,-0.204,-0.902
-1.037,0.195,0.187,-6.65,10.57,16.8,-0.235,-0.207,-0.905
-1.02,0.17,0.181,-11.06,10.29,8.54,-0.234,-0.208,-0.908
-1.014,0.132,0.191,-17.29,8.82,3.71,-0.238,-0.206,-0.914
-1.034,0.101,0.204,-26.88,6.16,-0.21,-0.24,-0.199,-0.91
-1.047,0.069,0.221,-39.69,7.21,-2.73,-0.238,-0.203,-0.917
-1.037,0.035,0.226,-54.18,9.87,-3.64,-0.24,-0.205,-0.912
-1.016,0.017,0.211,-71.96,12.32,-3.71,-0.238,-0.206,-0.916
-0.983,0.029,0.175,-97.23,16.59,-4.06,-0.234,-0.199,-0.913
-0.937,0.137,0.184,-103.74,17.15,-3.08,-0.236,-0.195,-0.916
