ax,ay,az,gx,gy,gz,mx,my,mz
-0.954,0.252,0.227,-1.05,-5.39,0.84,-0.25,-0.27,-0.92
-0.955,0.247,0.235,-1.89,-5.18,1.61,-0.246,-0.266,-0.923
-0.943,0.239,0.239,-2.45,-4.97,2.66,-0.246,-0.267,-0.918
-0.935,0.235,0.241,-2.38,-5.81,3.78,-0.249,-0.267,-0.917
-0.937,0.226,0.241,-1.19,-6.44,4.9,-0.247,-0.266,-0.923
-0.936,0.18,0.243,0.7,-7.49,8.05,-0.244,-0.264,-0.92
-0.935,0.152,0.251,0.14,-8.05,11.41,-0.247,-0.264,-0.921
-0.932,0.14,0.252,-2.38,-8.12,15.4,-0.247,-0.266,-0.919
-0.926,0.14,0.246,-5.6,-7.7,19.04,-0.242,-0.26,-0.917
-0.939,0.15,0.245,-7.49,-8.54,22.05,-0.248,-0.254,-0.922
-0.958,0.164,0.251,-6.93,-9.17,24.85,-0.25,-0.252,-0.922
-0.965,0.166,0.244,-5.32,-9.17,25.06,-0.249,-0.249,-0.916
-0.964,0.156,0.242,-4.83,-9.31,24.08,-0.25,-0.244,-0.914
-0.967,0.14,0.236,-5.74,-9.52,22.47,-0.254,-0.239,-0.911
-0.97,0.126,0.23,-7.77,-9.24,20.93,-0.256,-0.238,-0.911
-0.968,0.121,0.225,-11.69,-8.75,18.41,-0.257,-0.236,-0.91
-0.964,0.118,0.208,-17.64,-8.19,14.21,-0.253,-0.234,-0.912
-0.984,0.135,0.204,-20.51,-9.17,11.62,-0.256,-0.23,-0.905
-1.001,0.155,0.21,-21.14,-9.94,9.45,-0.259,-0.236,-0.909
-1.011,0.166,0.216,-18.48,-10.71,7.63,-0.258,-0.228,-0.91
-1.011,0.167,0.218,-14.77,-11.48,6.23,-0.26,-0.228,-0.901
-0.988,0.156,0.214,-12.74,-11.69,4.62,-0.258,-0.228,-0.904
-0.925,0.147,0.225,-13.65,-12.11,3.57,-0.257,-0.224,-0.907
-0.887,0.163,0.236,-15.12,-12.18,2.87,-0.257,-0.227,-0.9
-0.851,0.184,0.249,-14.91,-11.62,1.89,-0.258,-0.222,-0.896
-0.827,0.202,0.255,-12.39,-10.5,1.89,-0.261,-0.223,-0.895
-0.831,0.226,0.256,-6.3,-9.1,5.11,-0.252,-0.221,-0.895
-0.92,0.275,0.26,-1.26,-8.47,9.87,-0.253,-0.219,-0.896
-0.992,0.296,0.271,4.13,-6.72,15.82,-0.255,-0.218,-0.897
-1.019,0.294,0.276,7.63,-4.06,21.56,-0.257,-0.217,-0.898
-1.016,0.3,0.276,6.51,-1.47,25.41,-0.26,-0.213,-0.897
-1.019,0.319,0.278,2.45,0.07,27.09,-0.261,-0.211,-0.897
-1.012,0.326,0.277,-4.13,3.36,24.78,-0.266,-0.208,-0.896
-1.0,0.333,0.282,-9.03,5.39,21.77,-0.257,-0.204,-0.896
-0.98,0.341,0.297,-13.65,6.51,16.8,-0.264,-0.198,-0.9
-0.949,0.358,0.304,-16.38,8.05,10.08,-0.267,-0.195,-0.899
-0.915,0.376,0.306,-14.77,9.45,2.87,-0.267,-0.2,-0.903
-0.875,0.364,0.303,-5.81,10.08,-6.44,-0.263,-0.201,-0.904
-0.847,0.335,0.299,-0.07,10.99,-11.2,-0.263,-0.199,-0.907
-0.818,0.305,0.296,2.8,12.18,-15.19,-0.261,-0.2,-0.905
-0.791,0.283,0.292,3.5,13.93,-17.29,-0.264,-0.204,-0.902
-0.772,0.273,0.287,2.87,14.98,-17.85,-0.266,-0.204,-0.909
-0.766,0.268,0.284,1.89,16.45,-16.45,-0.263,-0.206,-0.91
-0.785,0.262,0.295,-0.21,17.64,-13.93,-0.263,-0.21,-0.914
-0.783,0.257,0.313,-2.38,20.44,-10.57,-0.263,-0.209,-0.913
-0.762,0.256,0.318,-5.67,24.22,-7.84,-0.261,-0.214,-0.913
-0.766,0.269,0.325,-8.89,27.09,-5.6,-0.264,-0.213,-0.924
-0.786,0.294,0.321,-10.92,31.01,-4.83,-0.268,-0.213,-0.924
-0.799,0.313,0.315,-12.46,33.81,-4.9,-0.266,-0.216,-0.934
-0.823,0.338,0.357,-13.86,34.51,-5.6,-0.269,-0.212,-0.935
-0.839,0.346,0.367,-17.43,36.12,-8.96,-0.271,-0.214,-0.93
-0.851,0.353,0.345,-24.64,37.73,-11.97,-0.266,-0.215,-0.937
-0.873,0.37,0.335,-31.15,36.61,-13.79,-0.269,-0.215,-0.938
-0.869,0.384,0.318,-37.1,37.24,-13.44,-0.266,-0.217,-0.948
-0.849,0.391,0.291,-41.58,33.46,-9.17,-0.268,-0.223,-0.951
-0.816,0.351,0.269,-48.02,29.05,-3.64,-0.268,-0.224,-0.953
-0.804,0.348,0.291,-53.62,22.54,5.32,-0.268,-0.225,-0.96
-0.764,0.356,0.306,-57.54,17.29,13.65,-0.267,-0.216,-0.958
-0.704,0.348,0.288,-57.26,12.04,21.07,-0.269,-0.219,-0.959
-0.656,0.327,0.283,-54.81,4.62,28.28,-0.268,-0.216,-0.957
-0.627,0.317,0.288,-50.96,-6.23,40.32,-0.272,-0.209,-0.951
-0.769,0.349,0.269,-44.1,-18.06,50.679,-0.274,-0.203,-0.948
-1.019,0.331,0.307,-33.53,-33.6,62.649,-0.271,-0.196,-0.953
-1.083,0.257,0.375,-21.98,-38.01,73.919,-0.275,-0.18,-0.943
-0.84,0.236,0.354,-16.1,-30.17,77.139,-0.273,-0.174,-0.936
-0.692,0.314,0.337,-1.05,-32.76,74.48,-0.276,-0.163,-0.935
-1.238,0.442,0.203,73.429,-53.97,65.59,-0.276,-0.156,-0.927
-1.656,0.189,0.088,130.13,-56.91,57.61,-0.274,-0.145,-0.919
-1.553,-0.231,0.072,143.43,-31.5,49.98,-0.275,-0.146,-0.914
-1.067,-0.505,0.041,96.389,0.84,39.06,-0.273,-0.148,-0.92
-0.758,-0.542,0.08,16.73,-0.07,15.26,-0.275,-0.145,-0.923
-0.804,-0.475,0.159,-83.3,-9.66,-20.02,-0.277,-0.148,-0.921
-1.047,-0.253,0.152,-116.27,-6.3,-26.95,-0.274,-0.146,-0.918
-1.075,-0.096,0.11,-117.32,-2.52,-24.5,-0.277,-0.149,-0.915
-1.024,-0.013,0.089,-88.48,-1.89,-15.05,-0.275,-0.144,-0.911
-0.953,0.046,0.097,-45.15,-2.94,-3.36,-0.271,-0.146,-0.911
-0.941,0.042,0.13,-0.21,-6.23,8.12,-0.273,-0.142,-0.914
-1.041,-0.098,0.159,45.57,-11.2,9.87,-0.275,-0.145,-0.917
-1.086,-0.22,0.173,47.25,-11.41,7.14,-0.275,-0.142,-0.913
-1.072,-0.255,0.177,26.67,-9.31,4.55,-0.27,-0.148,-0.908
-1.022,-0.2,0.164,2.94,-6.58,1.96,-0.275,-0.145,-0.909
-0.986,-0.112,0.13,-6.02,-5.67,-1.4,-0.274,-0.147,-0.911
-0.996,-0.064,0.136,-1.75,-6.51,-4.2,-0.273,-0.153,-0.91
-1.02,-0.071,0.161,6.65,-7.28,-4.34,-0.273,-0.147,-0.911
-1.024,-0.121,0.165,6.58,-6.16,-2.59,-0.272,-0.149,-0.913
-1.024,-0.081,0.172,-1.54,-6.72,-0.35,-0.271,-0.152,-0.909
-1.019,-0.026,0.178,-5.81,-7.63,2.03,-0.273,-0.153,-0.91
-1.0,0.026,0.189,-3.85,-8.89,3.29,-0.274,-0.154,-0.914
-0.994,0.042,0.18,0.49,-11.34,2.03,-0.272,-0.149,-0.913
-1.01,0.052,0.173,7.91,-13.37,1.54,-0.277,-0.147,-0.909
-1.043,0.046,0.174,16.8,-15.33,-0.35,-0.269,-0.15,-0.906
-1.077,0.014,0.169,20.58,-14.21,-2.31,-0.273,-0.152,-0.907
-1.088,0.002,0.189,14.63,-12.6,-2.73,-0.267,-0.158,-0.906
-1.061,0.011,0.201,10.43,-10.36,-4.41,-0.272,-0.156,-0.9
-1.059,-0.008,0.206,9.38,-11.13,-6.44,-0.27,-0.156,-0.901
-1.065,-0.028,0.209,8.05,-10.22,-7.91,-0.273,-0.159,-0.907
-1.075,-0.033,0.215,6.23,-9.24,-7.21,-0.27,-0.16,-0.904
-1.125,-0.022,0.173,4.34,-4.27,1.75,-0.268,-0.161,-0.909
-1.14,0.005,0.154,1.54,-2.17,4.34,-0.271,-0.155,-0.9
-1.116,0.025,0.139,1.4,-1.61,3.64,-0.268,-0.156,-0.903
-1.108,0.022,0.146,1.4,-2.24,1.89,-0.272,-0.154,-0.906
-1.102,0.02,0.14,0.0,-2.45,1.75,-0.267,-0.157,-0.909
-1.09,0.008,0.139,-3.01,-2.52,1.47,-0.267,-0.158,-0.908
-1.071,0.012,0.133,-7.42,-2.45,3.92,-0.268,-0.159,-0.909
-1.072,0.041,0.146,-11.27,-3.92,5.18,-0.264,-0.158,-0.912
-1.066,0.075,0.157,-10.78,-4.83,6.37,-0.267,-0.157,-0.907
-1.057,0.085,0.162,-5.95,-5.95,6.58,-0.266,-0.157,-0.905
-1.058,0.083,0.167,-0.07,-7.84,7.21,-0.264,-0.162,-0.906
-1.064,0.059,0.172,4.27,-8.89,6.51,-0.267,-0.152,-0.896
-1.063,0.041,0.184,4.76,-8.89,5.81,-0.269,-0.153,-0.9
-1.052,0.045,0.201,0.28,-7.98,4.41,-0.276,-0.148,-0.898
-1.037,0.05,0.209,-1.68,-7.21,3.22,-0.271,-0.153,-0.901
-1.021,0.045,0.216,-2.38,-6.58,2.1,-0.27,-0.148,-0.901
-1.004,0.038,0.221,-3.57,-6.3,1.82,-0.269,-0.145,-0.896
-0.988,0.034,0.216,-4.62,-5.67,2.1,-0.274,-0.145,-0.9
-0.996,0.04,0.22,-2.87,-6.02,4.06,-0.268,-0.145,-0.904
-1.006,0.043,0.224,-0.35,-5.46,6.23,-0.271,-0.148,-0.897
-1.001,0.035,0.213,2.87,-4.41,8.12,-0.271,-0.146,-0.897
-0.997,0.03,0.209,4.55,-3.43,9.87,-0.272,-0.147,-0.898
-0.987,0.017,0.202,5.32,-2.31,10.57,-0.27,-0.143,-0.903
-0.981,-0.002,0.19,3.92,-0.28,10.08,-0.272,-0.144,-0.905
-1.011,-0.014,0.174,1.05,0.98,9.38,-0.271,-0.15,-0.902
-1.025,-0.029,0.168,-3.92,3.43,8.68,-0.272,-0.143,-0.9
-1.007,-0.027,0.159,-10.15,5.81,8.4,-0.272,-0.144,-0.902
-0.981,-0.02,0.148,-16.31,6.65,6.44,-0.268,-0.139,-0.9
-0.971,0.003,0.144,-20.44,5.18,4.13,-0.27,-0.139,-0.898
-0.979,0.037,0.142,-18.13,1.96,2.45,-0.272,-0.135,-0.903
-0.974,0.043,0.132,-12.74,0.14,1.89,-0.273,-0.134,-0.9
-0.977,0.04,0.13,-6.44,-2.03,3.01,-0.272,-0.133,-0.907
-0.988,0.04,0.139,-1.68,-3.71,4.9,-0.27,-0.136,-0.907
-0.997,0.033,0.147,1.12,-4.97,5.81,-0.276,-0.131,-0.905
-1.0,0.033,0.152,1.61,-5.6,6.65,-0.272,-0.129,-0.903
-1.016,0.039,0.162,0.7,-6.44,5.74,-0.275,-0.131,-0.896
-1.031,0.043,0.169,0.49,-5.88,5.11,-0.274,-0.13,-0.898
-1.022,0.038,0.172,-0.49,-5.67,3.92,-0.275,-0.131,-0.893
-1.027,0.042,0.182,-1.89,-6.37,2.87,-0.273,-0.128,-0.895
-1.046,0.055,0.199,-2.1,-7.49,1.61,-0.273,-0.131,-0.904
-1.057,0.066,0.212,0.0,-8.26,0.56,-0.276,-0.131,-0.897
-1.065,0.069,0.21,4.41,-8.82,-0.07,-0.273,-0.132,-0.901
-1.083,0.059,0.211,11.9,-9.31,0.0,-0.275,-0.128,-0.9
-1.116,0.032,0.209,13.51,-8.82,-0.84,-0.273,-0.129,-0.9
-1.121,0.006,0.205,12.11,-7.35,-1.89,-0.272,-0.133,-0.903
-1.118,-0.006,0.211,8.05,-6.72,-3.15,-0.275,-0.134,-0.892
-1.107,-0.007,0.207,3.64,-5.6,-4.55,-0.269,-0.134,-0.89
-1.091,-0.006,0.199,1.33,-5.11,-5.04,-0.275,-0.134,-0.896
-1.06,-0.009,0.196,1.54,-4.34,-5.11,-0.271,-0.134,-0.895
-1.014,-0.024,0.188,3.5,-3.08,-4.48,-0.269,-0.142,-0.893
-0.956,-0.042,0.152,-4.2,-1.82,0.21,-0.272,-0.132,-0.887
-0.987,-0.012,0.148,-5.53,-2.38,2.45,-0.27,-0.133,-0.89
-1.014,0.012,0.142,-5.18,-2.38,4.55,-0.274,-0.132,-0.892
-1.041,0.038,0.135,-3.08,-3.15,5.95,-0.27,-0.137,-0.891
-1.078,0.054,0.15,0.7,-5.11,6.51,-0.266,-0.13,-0.893
-1.09,0.052,0.156,7.91,-6.93,5.32,-0.274,-0.13,-0.892
-1.059,0.029,0.167,11.41,-8.05,3.78,-0.272,-0.129,-0.891
-1.047,0.01,0.177,12.6,-9.38,2.1,-0.267,-0.129,-0.892
-1.038,-0.004,0.183,12.11,-9.59,0.42,-0.27,-0.126,-0.896
-1.03,-0.01,0.181,10.85,-9.03,-0.84,-0.27,-0.126,-0.893
-1.039,-0.01,0.178,10.01,-8.96,-1.05,-0.272,-0.126,-0.892
-1.059,-0.022,0.181,9.87,-7.77,-0.21,-0.269,-0.131,-0.886
-1.052,-0.025,0.168,8.47,-6.44,1.05,-0.271,-0.132,-0.887
-1.05,-0.026,0.15,6.51,-5.6,1.33,-0.27,-0.128,-0.887
-1.035,-0.026,0.131,4.69,-4.97,1.75,-0.266,-0.128,-0.88
-0.997,-0.026,0.102,2.52,-3.64,0.84,-0.268,-0.13,-0.877
-0.986,-0.03,0.075,2.59,-4.27,-0.07,-0.269,-0.132,-0.877
-1.032,-0.052,0.051,3.57,-5.04,-0.28,-0.268,-0.128,-0.881
-1.06,-0.064,0.033,2.38,-4.69,-1.19,-0.265,-0.128,-0.877
-1.068,-0.065,0.008,0.63,-3.85,-2.38,-0.267,-0.131,-0.873
-1.068,-0.09,-0.004,0.21,-3.64,-3.29,-0.266,-0.127,-0.877
-1.068,-0.137,-0.015,-2.24,-3.71,-4.27,-0.27,-0.129,-0.879
-1.082,-0.176,-0.021,-15.68,-4.34,-6.58,-0.267,-0.128,-0.879
-1.087,-0.157,-0.004,-24.08,-5.11,-8.12,-0.268,-0.136,-0.869
-1.082,-0.135,0.012,-24.71,-5.95,-9.31,-0.265,-0.131,-0.875
-1.077,-0.14,0.037,-18.62,-7.84,-9.8,-0.27,-0.13,-0.875
-1.06,-0.181,0.061,-11.13,-8.61,-8.68,-0.268,-0.133,-0.874
-1.045,-0.236,0.09,-7.77,-8.82,-5.11,-0.27,-0.129,-0.88
-1.031,-0.247,0.101,-11.55,-7.7,-2.59,-0.267,-0.127,-0.872
-1.023,-0.235,0.109,-17.15,-6.16,1.75,-0.269,-0.132,-0.872
-1.017,-0.203,0.11,-21.77,-4.55,6.09,-0.265,-0.129,-0.876
-1.013,-0.167,0.105,-22.19,-3.92,9.94,-0.262,-0.128,-0.874
-1.015,-0.13,0.102,-17.29,-3.92,14.42,-0.27,-0.124,-0.87
-1.04,-0.104,0.1,-10.64,-4.13,16.24,-0.264,-0.118,-0.863
-1.054,-0.108,0.107,-5.67,-3.85,17.01,-0.267,-0.12,-0.862
-1.03,-0.116,0.098,-4.76,-2.87,16.38,-0.268,-0.116,-0.868
-1.004,-0.123,0.093,-6.58,-2.45,15.05,-0.264,-0.114,-0.867
-0.985,-0.113,0.099,-10.5,-1.61,13.3,-0.268,-0.108,-0.872
-0.96,-0.112,0.107,-16.1,0.91,10.99,-0.268,-0.104,-0.869
-0.915,-0.109,0.095,-19.88,3.22,9.8,-0.266,-0.104,-0.874
-0.904,-0.108,0.079,-23.8,4.41,9.73,-0.268,-0.102,-0.877
-0.907,-0.099,0.069,-28.21,5.32,10.57,-0.27,-0.098,-0.876
-0.917,-0.085,0.066,-33.32,6.02,11.69,-0.268,-0.091,-0.872
-0.938,-0.062,0.069,-36.54,5.6,12.88,-0.271,-0.09,-0.878
-0.964,-0.026,0.065,-33.95,4.34,13.72,-0.269,-0.084,-0.883
-0.972,-0.028,0.076,-27.16,3.08,12.39,-0.264,-0.082,-0.881
-0.969,-0.051,0.094,-20.58,2.38,9.1,-0.265,-0.082,-0.879
-0.968,-0.076,0.139,-16.59,1.75,3.78,-0.265,-0.079,-0.884
-0.998,-0.092,0.18,-14.91,2.52,-4.34,-0.268,-0.081,-0.88
-1.102,-0.155,0.241,-12.74,7.84,-17.01,-0.269,-0.08,-0.884
-1.137,-0.195,0.253,-18.13,17.29,-26.04,-0.271,-0.083,-0.888
-1.153,-0.187,0.223,-34.23,28.56,-37.59,-0.271,-0.091,-0.897
-1.166,-0.168,0.168,-56.28,37.94,-51.59,-0.271,-0.093,-0.904
-1.149,-0.108,0.117,-81.55,47.32,-68.53,-0.272,-0.103,-0.908
-1.115,-0.067,0.083,-116.34,51.73,-94.64,-0.279,-0.105,-0.918
-0.902,-0.157,0.088,-127.33,50.05,-95.9,-0.28,-0.113,-0.92
-0.655,-0.077,0.202,-130.34,44.1,-91.77,-0.274,-0.127,-0.93
-0.473,0.138,0.301,-115.78,37.1,-86.17,-0.279,-0.133,-0.931
-0.46,0.34,0.263,-84.91,31.36,-75.88,-0.279,-0.142,-0.936
-0.589,0.417,0.185,-39.06,21.56,-59.92,-0.277,-0.149,-0.934
-0.761,0.339,0.208,2.1,10.36,-22.26,-0.275,-0.156,-0.941
-0.727,0.377,0.216,-6.72,9.52,-0.77,-0.274,-0.153,-0.944
-0.713,0.556,0.259,-20.86,1.12,10.22,-0.276,-0.157,-0.947
-0.836,0.772,0.33,-16.87,-12.32,15.96,-0.274,-0.148,-0.944
-0.968,0.901,0.354,6.23,-21.07,21.7,-0.277,-0.152,-0.945
-0.989,0.926,0.333,38.22,-20.44,28.28,-0.278,-0.148,-0.939
-0.974,0.913,0.347,53.97,-24.08,28.63,-0.275,-0.146,-0.939
-1.006,0.848,0.364,68.669,-27.23,23.8,-0.277,-0.142,-0.939
-1.023,0.724,0.384,77.07,-25.83,16.66,-0.276,-0.137,-0.94
-1.029,0.645,0.368,74.27,-22.61,10.78,-0.275,-0.141,-0.936
-1.072,0.599,0.368,65.52,-21.35,1.96,-0.275,-0.139,-0.938
-1.094,0.583,0.362,67.2,-18.13,-1.47,-0.272,-0.141,-0.933
-1.079,0.514,0.339,72.03,-14.77,-6.09,-0.279,-0.144,-0.925
-1.023,0.411,0.314,74.2,-10.99,-11.41,-0.276,-0.145,-0.927
-0.988,0.316,0.279,69.02,-9.31,-16.17,-0.275,-0.15,-0.919
-0.997,0.264,0.262,52.36,-8.54,-20.86,-0.272,-0.155,-0.923
-1.036,0.285,0.239,44.66,-8.19,-18.9,-0.271,-0.162,-0.925
-1.051,0.318,0.235,45.29,-7.35,-14.42,-0.277,-0.165,-0.927
-0.983,0.301,0.203,49.909,-3.99,-10.5,-0.273,-0.165,-0.927
-0.907,0.241,0.155,51.73,-3.43,-9.1,-0.273,-0.169,-0.929
-0.874,0.179,0.13,48.02,-7.35,-8.4,-0.273,-0.171,-0.929
-0.863,0.156,0.12,37.94,-12.53,-6.09,-0.271,-0.179,-0.934
-0.841,0.213,0.132,27.16,-16.31,-3.85,-0.273,-0.18,-0.932
-0.849,0.265,0.149,31.92,-20.09,-0.07,-0.27,-0.18,-0.928
-0.865,0.276,0.133,43.47,-23.31,3.01,-0.273,-0.178,-0.923
-0.842,0.227,0.104,56.0,-24.29,3.85,-0.275,-0.175,-0.927
-0.805,0.161,0.091,61.46,-26.11,4.2,-0.273,-0.176,-0.917
-0.781,0.124,0.1,59.639,-28.28,3.57,-0.276,-0.181,-0.914
-0.782,0.095,0.119,53.69,-29.4,-0.7,-0.269,-0.178,-0.911
-0.811,0.035,0.155,49.98,-28.21,-3.43,-0.27,-0.18,-0.911
-0.802,-0.021,0.152,44.17,-23.94,-5.32,-0.271,-0.185,-0.907
-0.775,-0.058,0.13,35.84,-19.95,-4.83,-0.272,-0.182,-0.902
-0.758,-0.06,0.095,27.23,-16.8,-1.68,-0.271,-0.187,-0.898
-0.793,-0.027,0.103,21.63,-15.82,3.78,-0.27,-0.189,-0.904
-0.881,0.057,0.11,21.84,-13.44,9.94,-0.27,-0.186,-0.901
-0.895,0.096,0.093,29.54,-9.59,12.6,-0.272,-0.188,-0.903
-0.903,0.093,0.085,35.42,-9.31,14.63,-0.272,-0.187,-0.902
-0.943,0.09,0.087,34.72,-12.18,15.96,-0.272,-0.183,-0.902
-1.002,0.126,0.1,29.75,-14.56,16.59,-0.269,-0.184,-0.901
-0.999,0.178,0.145,30.8,-13.51,15.19,-0.272,-0.179,-0.896
-0.903,0.17,0.149,36.47,-11.97,10.01,-0.268,-0.181,-0.896
-0.826,0.147,0.141,39.9,-13.86,3.22,-0.265,-0.178,-0.899
-0.822,0.123,0.153,42.42,-19.04,-2.31,-0.265,-0.184,-0.894
-0.886,0.113,0.185,46.06,-22.19,-4.13,-0.265,-0.184,-0.9
-0.968,0.116,0.207,47.39,-22.33,-3.99,-0.267,-0.182,-0.892
-1.036,0.095,0.212,44.24,-17.64,-2.31,-0.265,-0.189,-0.893
-1.106,0.114,0.19,42.77,-14.7,1.05,-0.26,-0.188,-0.894
-1.107,0.088,0.193,39.2,-11.62,1.54,-0.263,-0.19,-0.889
-1.054,0.076,0.188,31.57,-8.26,-0.35,-0.263,-0.193,-0.888
-1.002,0.08,0.195,22.61,-8.61,-4.34,-0.26,-0.19,-0.896
-1.009,0.102,0.219,17.22,-12.32,-8.61,-0.262,-0.192,-0.889
-1.112,0.14,0.263,22.61,-17.92,-13.72,-0.265,-0.193,-0.885
-1.107,0.137,0.266,31.99,-14.42,-14.14,-0.265,-0.19,-0.888
-1.038,0.118,0.238,41.93,-10.43,-14.28,-0.262,-0.202,-0.885
-0.987,0.092,0.2,49.84,-8.96,-14.91,-0.262,-0.206,-0.892
-0.972,0.054,0.18,53.55,-7.98,-17.01,-0.262,-0.207,-0.889
-0.971,0.005,0.179,45.22,-4.62,-21.56,-0.263,-0.211,-0.886
-0.989,0.007,0.191,33.04,-2.17,-23.73,-0.261,-0.213,-0.895
-1.03,0.03,0.202,20.72,0.35,-25.41,-0.259,-0.22,-0.893
-1.074,0.042,0.215,11.55,3.57,-25.62,-0.26,-0.228,-0.898
-1.103,0.057,0.235,4.2,7.63,-24.29,-0.259,-0.226,-0.905
-1.105,0.076,0.255,-5.74,14.35,-22.47,-0.255,-0.231,-0.903
-1.071,0.081,0.255,-11.62,18.62,-21.63,-0.255,-0.238,-0.903
-1.011,0.09,0.245,-17.43,21.91,-21.84,-0.257,-0.239,-0.908
-0.952,0.102,0.238,-22.61,24.01,-23.24,-0.252,-0.234,-0.91
-0.913,0.12,0.224,-24.36,23.73,-24.71,-0.255,-0.238,-0.91
-0.916,0.151,0.228,-20.93,20.09,-25.9,-0.254,-0.246,-0.912
-0.942,0.165,0.232,-16.24,17.99,-25.27,-0.25,-0.247,-0.916
-0.966,0.172,0.234,-10.36,16.73,-23.73,-0.252,-0.248,-0.918
-0.985,0.17,0.234,-6.51,15.12,-20.93,-0.256,-0.255,-0.923
-0.988,0.178,0.239,-4.76,13.65,-17.57,-0.256,-0.26,-0.92
-0.972,0.182,0.234,-5.88,12.11,-13.23,-0.256,-0.26,-0.922
-0.939,0.189,0.227,-7.35,10.22,-10.36,-0.256,-0.262,-0.924
-0.919,0.196,0.231,-9.24,7.49,-7.21,-0.254,-0.26,-0.927
-0.886,0.213,0.231,-9.87,5.95,-4.69,-0.254,-0.263,-0.92
-0.864,0.241,0.23,-7.56,3.85,-2.31,-0.253,-0.261,-0.931
-0.878,0.267,0.24,1.4,-1.19,1.82,-0.253,-0.264,-0.927
-0.91,0.27,0.252,9.24,-2.52,4.76,-0.25,-0.265,-0.923
-0.919,0.248,0.257,14.77,-3.22,7.0,-0.25,-0.26,-0.922
-0.924,0.225,0.256,16.66,-3.64,9.38,-0.256,-0.26,-0.932
-0.926,0.207,0.255,14.21,-3.15,12.18,-0.252,-0.258,-0.927
-0.932,0.206,0.258,9.03,-2.66,15.26,-0.253,-0.26,-0.931
-0.945,0.228,0.263,0.84,-1.96,16.73,-0.25,-0.254,-0.929
-0.957,0.256,0.269,-1.05,-1.82,17.43,-0.249,-0.257,-0.929
-0.972,0.278,0.265,-0.28,-1.75,16.1,-0.25,-0.251,-0.926
-0.982,0.284,0.266,2.66,-1.96,14.21,-0.252,-0.249,-0.928
-0.976,0.273,0.264,5.25,-1.75,11.2,-0.251,-0.246,-0.932
-0.97,0.265,0.261,5.25,-1.75,4.83,-0.253,-0.249,-0.932
-0.966,0.249,0.253,3.57,-1.54,0.56,-0.249,-0.248,-0.931
-0.955,0.239,0.25,1.26,-0.56,-2.73,-0.253,-0.245,-0.929
-0.947,0.237,0.25,-1.75,0.0,-4.76,-0.255,-0.249,-0.928
-0.945,0.235,0.248,-4.69,0.84,-6.51,-0.253,-0.246,-0.932
-0.945,0.231,0.244,-6.65,1.33,-7.21,-0.252,-0.251,-0.932
-0.944,0.228,0.248,-8.68,1.75,-7.84,-0.252,-0.253,-0.933
-0.934,0.22,0.245,-9.45,1.96,-8.26,-0.254,-0.249,-0.931
-0.933,0.216,0.244,-10.92,1.33,-8.61,-0.248,-0.253,-0.935
-0.941,0.219,0.243,-11.76,0.7,-9.24,-0.25,-0.256,-0.935
-0.945,0.219,0.249,-11.34,-0.42,-9.59,-0.253,-0.253,-0.929
-0.94,0.216,0.246,-9.8,-0.91,-9.31,-0.255,-0.256,-0.939
-0.943,0.214,0.242,-7.14,-2.94,-8.47,-0.247,-0.256,-0.926
-0.959,0.22,0.253,-4.13,-4.69,-6.93,-0.252,-0.256,-0.929
-0.944,0.222,0.259,-0.07,-5.18,-5.39,-0.25,-0.256,-0.929
-0.93,0.218,0.255,4.48,-6.44,-4.9,-0.255,-0.257,-0.931
-0.939,0.214,0.258,8.61,-8.12,-4.55,-0.248,-0.255,-0.932
-0.949,0.208,0.264,11.27,-8.47,-3.64,-0.247,-0.257,-0.938
-0.959,0.199,0.269,13.16,-7.63,-2.03,-0.248,-0.261,-0.933
-0.971,0.197,0.272,12.18,-6.23,-1.12,-0.246,-0.266,-0.926
-0.974,0.201,0.274,9.73,-4.55,-0.63,-0.249,-0.264,-0.931
-0.974,0.205,0.27,6.72,-3.01,-0.84,-0.25,-0.264,-0.928
-0.974,0.202,0.265,3.08,-1.47,-1.4,-0.247,-0.262,-0.925
-0.975,0.204,0.258,-1.05,17.78,-2.24,-0.251,-0.263,-0.932
-0.966,0.218,0.25,-6.3,1.96,-3.08,-0.251,-0.263,-0.93
-0.961,0.227,0.244,-7.49,2.1,-3.92,-0.248,-0.261,-0.932
-0.956,0.232,0.241,-7.28,1.82,-4.55,-0.249,-0.263,-0.928
-0.95,0.233,0.238,-6.58,1.61,-4.97,-0.244,-0.263,-0.928
-0.947,0.233,0.238,-4.69,-0.07,-5.67,-0.25,-0.267,-0.926
-0.942,0.236,0.239,-3.22,-0.84,-6.09,-0.245,-0.263,-0.933
-0.939,0.233,0.239,-1.33,-1.61,-6.02,-0.249,-0.264,-0.935
-0.937,0.226,0.239,-0.21,-2.17,-6.3,-0.249,-0.264,-0.935
-0.94,0.217,0.239,0.14,-2.31,-6.23,-0.244,-0.268,-0.938
-0.941,0.212,0.239,-0.91,-2.45,-6.09,-0.245,-0.271,-0.934
-0.939,0.211,0.242,-2.94,-2.66,-5.6,-0.245,-0.267,-0.935
-0.934,0.216,0.243,-5.53,-2.45,-5.46,-0.241,-0.266,-0.938
-0.934,0.222,0.244,-6.51,-2.66,-5.46,-0.244,-0.27,-0.936
-0.931,0.224,0.242,-6.79,-2.8,-5.18,-0.243,-0.27,-0.936
