ax,ay,az,gx,gy,gz,mx,my,mz
-1.06,0.373,0.065,-12.74,2.24,16.17,-0.231,-0.207,-0.848
-1.071,0.368,0.061,-13.79,2.52,11.34,-0.229,-0.204,-0.853
-0.964,0.33,0.078,-25.97,2.8,-13.44,-0.229,-0.2,-0.855
-0.916,0.357,0.077,-23.8,0.56,-25.62,-0.235,-0.204,-0.848
-0.91,0.366,0.077,-15.89,-1.61,-28.56,-0.229,-0.204,-0.852
-0.924,0.371,0.079,-3.85,-4.55,-29.68,-0.228,-0.21,-0.859
-0.951,0.365,0.08,9.94,-7.42,-29.47,-0.227,-0.213,-0.847
-0.996,0.335,0.081,27.16,-9.38,-27.65,-0.227,-0.219,-0.849
-1.015,0.31,0.084,34.16,-9.87,-26.32,-0.223,-0.222,-0.855
-1.024,0.288,0.087,36.26,-9.52,-25.34,-0.225,-0.231,-0.849
-1.031,0.274,0.086,34.58,-8.96,-25.34,-0.222,-0.233,-0.858
-1.044,0.265,0.083,31.36,-9.38,-26.11,-0.225,-0.242,-0.854
-1.059,0.262,0.092,24.92,-8.75,-27.93,-0.221,-0.242,-0.847
-1.054,0.26,0.106,22.54,-6.93,-28.98,-0.217,-0.247,-0.848
-1.033,0.259,0.111,20.79,-5.6,-29.82,-0.219,-0.252,-0.844
-1.009,0.25,0.108,20.79,-4.97,-30.87,-0.216,-0.257,-0.853
-0.998,0.238,0.099,20.72,-4.27,-31.99,-0.213,-0.265,-0.848
-0.995,0.224,0.091,20.02,-4.06,-32.76,-0.216,-0.266,-0.849
-0.992,0.219,0.082,18.41,-3.15,-32.62,-0.211,-0.275,-0.855
-0.977,0.209,0.09,18.06,-1.4,-31.29,-0.207,-0.281,-0.856
-0.979,0.197,0.11,17.64,-0.35,-27.72,-0.207,-0.287,-0.856
-0.981,0.189,0.122,14.98,1.61,-23.87,-0.207,-0.288,-0.859
-0.975,0.185,0.135,11.9,4.62,-20.93,-0.204,-0.284,-0.859
-0.954,0.171,0.128,7.98,11.2,-15.96,-0.206,-0.292,-0.861
-0.908,0.159,0.103,-2.66,15.68,-13.3,-0.206,-0.294,-0.859
-0.868,0.155,0.099,-11.48,18.69,-11.83,-0.205,-0.293,-0.865
-0.832,0.164,0.11,-19.67,20.79,-10.15,-0.204,-0.296,-0.868
-0.809,0.186,0.123,-24.22,21.35,-8.33,-0.209,-0.298,-0.872
-0.806,0.212,0.131,-23.52,20.72,-6.02,-0.213,-0.301,-0.873
-0.835,0.221,0.123,-19.81,19.32,-4.27,-0.206,-0.294,-0.87
-0.907,0.234,0.098,-13.09,12.6,1.82,-0.205,-0.295,-0.872
-1.095,0.251,0.11,-8.75,7.84,6.58,-0.21,-0.296,-0.871
-1.214,0.26,0.138,-3.99,6.44,11.9,-0.213,-0.292,-0.874
-1.263,0.271,0.177,2.52,9.17,17.57,-0.215,-0.291,-0.876
-1.256,0.261,0.228,4.41,14.35,21.0,-0.216,-0.289,-0.878
-1.21,0.238,0.269,1.68,16.24,22.61,-0.221,-0.283,-0.879
-1.085,0.201,0.28,-6.93,16.24,21.07,-0.22,-0.282,-0.88
-0.978,0.195,0.255,-14.21,15.96,17.92,-0.224,-0.279,-0.881
-0.874,0.203,0.233,-20.16,15.82,14.56,-0.223,-0.276,-0.884
-0.791,0.198,0.215,-23.52,16.03,11.48,-0.223,-0.269,-0.885
-0.733,0.194,0.191,-24.29,16.31,11.83,-0.22,-0.274,-0.886
-0.703,0.191,0.153,-22.96,15.19,17.57,-0.223,-0.271,-0.888
-0.687,0.182,0.112,-23.38,14.98,24.01,-0.226,-0.268,-0.892
-0.688,0.188,0.085,-26.39,15.54,30.1,-0.225,-0.263,-0.891
-0.701,0.189,0.06,-28.77,13.72,36.89,-0.234,-0.25,-0.898
-0.738,0.188,0.057,-30.31,9.31,46.69,-0.231,-0.247,-0.893
-0.797,0.197,0.075,-32.83,4.34,57.05,-0.236,-0.238,-0.893
-0.889,0.23,0.137,-41.09,-1.68,66.85,-0.239,-0.227,-0.888
-0.932,0.262,0.182,-45.71,-3.92,70.28,-0.237,-0.221,-0.896
-0.942,0.302,0.211,-45.64,-5.95,72.73,-0.242,-0.21,-0.891
-0.938,0.336,0.232,-39.76,-9.24,73.639,-0.244,-0.2,-0.89
-0.944,0.355,0.231,-30.59,-14.49,73.22,-0.239,-0.181,-0.887
-0.963,0.369,0.247,-11.48,-20.86,68.81,-0.242,-0.179,-0.887
-0.981,0.379,0.253,0.63,-21.49,63.56,-0.243,-0.165,-0.879
-0.987,0.378,0.256,11.13,-20.58,56.21,-0.242,-0.161,-0.875
-0.995,0.362,0.264,19.32,-18.48,46.69,-0.244,-0.156,-0.873
-1.012,0.366,0.3,19.18,-12.53,34.93,-0.241,-0.148,-0.875
-1.011,0.345,0.326,2.8,-1.47,12.81,-0.243,-0.143,-0.869
-0.971,0.328,0.322,-14.14,3.29,-1.19,-0.241,-0.141,-0.877
-0.953,0.321,0.338,-34.58,5.46,-12.74,-0.239,-0.142,-0.872
-0.936,0.31,0.331,-53.55,7.0,-24.64,-0.244,-0.148,-0.876
-0.918,0.315,0.32,-69.16,6.79,-34.37,-0.242,-0.143,-0.878
-0.892,0.343,0.303,-80.08,5.25,-44.45,-0.248,-0.147,-0.88
-0.871,0.379,0.275,-75.95,3.08,-47.53,-0.245,-0.151,-0.881
-0.837,0.417,0.258,-63.63,0.91,-47.46,-0.244,-0.158,-0.881
-0.814,0.416,0.239,-45.78,-1.12,-45.57,-0.251,-0.163,-0.878
-0.835,0.401,0.225,-26.74,-3.36,-42.35,-0.25,-0.165,-0.879
-0.961,0.409,0.248,-9.03,-8.05,-37.52,-0.24,-0.173,-0.879
-1.121,0.439,0.259,7.84,-9.8,-29.4,-0.245,-0.173,-0.879
-1.184,0.389,0.242,31.29,-5.6,-25.13,-0.242,-0.177,-0.875
-1.062,0.335,0.217,41.86,-2.1,-24.29,-0.241,-0.186,-0.876
-0.932,0.22,0.192,42.63,1.82,-30.8,-0.24,-0.189,-0.88
-0.815,0.043,0.193,44.24,4.13,-33.39,-0.244,-0.199,-0.882
-0.739,-0.023,0.249,46.27,4.27,-26.88,-0.243,-0.201,-0.883
-0.718,-0.001,0.208,38.85,3.92,-22.33,-0.238,-0.21,-0.889
-0.914,0.086,0.141,36.12,2.17,-16.8,-0.243,-0.208,-0.891
-1.108,0.088,0.076,40.88,5.74,-9.52,-0.245,-0.216,-0.888
-1.197,0.02,0.004,48.58,12.95,-2.87,-0.243,-0.216,-0.898
-1.127,-0.051,-0.029,42.84,20.79,0.98,-0.243,-0.216,-0.904
-1.029,-0.086,-0.061,4.48,28.42,-8.96,-0.245,-0.221,-0.904
-0.958,-0.11,-0.047,-23.45,28.07,-20.86,-0.242,-0.22,-0.912
-0.934,-0.106,-0.002,-35.98,23.59,-24.85,-0.24,-0.222,-0.911
-0.929,-0.041,0.033,-35.42,17.85,-22.4,-0.244,-0.221,-0.915
-0.948,0.009,0.034,-23.24,11.2,-18.9,-0.244,-0.225,-0.914
-0.984,0.031,-0.019,9.1,2.66,-7.98,-0.242,-0.226,-0.908
-1.039,0.001,-0.034,31.22,-0.98,0.42,-0.241,-0.227,-0.918
-1.067,-0.045,-0.047,40.81,-1.54,7.21,-0.246,-0.227,-0.909
-1.068,-0.06,-0.051,36.82,-0.98,10.92,-0.246,-0.228,-0.912
-1.069,-0.047,-0.041,21.07,-0.28,10.64,-0.249,-0.229,-0.913
-1.072,0.007,-0.026,-5.67,-0.28,9.8,-0.248,-0.226,-0.916
-1.04,0.033,-0.031,-19.11,-0.63,9.31,-0.244,-0.223,-0.915
-1.048,0.068,-0.026,-29.19,-3.08,9.94,-0.247,-0.222,-0.913
-1.065,0.113,-0.007,-36.68,-6.3,9.45,-0.247,-0.218,-0.912
-1.062,0.158,0.001,-41.3,-8.68,8.68,-0.25,-0.219,-0.907
-1.062,0.199,0.005,-38.08,-14.63,9.87,-0.252,-0.214,-0.91
-1.066,0.238,0.013,-32.2,-18.13,10.43,-0.252,-0.21,-0.901
-1.041,0.235,0.03,-26.67,-21.0,10.01,-0.253,-0.211,-0.895
-1.003,0.228,0.048,-22.19,-23.87,9.38,-0.253,-0.207,-0.898
-0.98,0.235,0.054,-17.85,-27.58,9.24,-0.253,-0.206,-0.895
-1.002,0.266,0.061,-14.49,-32.2,9.38,-0.247,-0.2,-0.891
-1.052,0.293,0.073,-7.0,-38.01,10.85,-0.247,-0.199,-0.887
-1.098,0.312,0.083,1.19,-40.53,13.3,-0.248,-0.198,-0.883
-1.106,0.303,0.103,11.06,-41.65,16.1,-0.246,-0.198,-0.874
-1.113,0.3,0.119,20.65,-42.84,18.83,-0.247,-0.199,-0.87
-1.126,0.309,0.138,27.16,-43.82,18.27,-0.247,-0.193,-0.857
-1.127,0.313,0.136,30.94,-42.7,16.59,-0.244,-0.195,-0.859
-1.117,0.31,0.141,35.56,-40.11,13.72,-0.243,-0.194,-0.854
-1.102,0.303,0.144,43.12,-38.29,10.78,-0.245,-0.194,-0.856
-1.097,0.271,0.159,46.76,-35.84,6.79,-0.241,-0.196,-0.855
-1.099,0.229,0.153,47.25,-32.9,2.59,-0.238,-0.191,-0.851
-1.101,0.188,0.146,43.82,-29.47,-1.26,-0.234,-0.19,-0.853
-1.113,0.173,0.147,35.21,-26.95,-4.55,-0.238,-0.202,-0.837
-1.129,0.178,0.152,18.48,-22.54,-8.96,-0.234,-0.204,-0.837
-1.132,0.18,0.138,10.71,-19.81,-10.15,-0.237,-0.203,-0.833
-1.115,0.189,0.128,7.0,-17.85,-9.8,-0.234,-0.207,-0.836
-1.091,0.198,0.123,8.19,-16.73,-8.96,-0.232,-0.21,-0.834
-1.074,0.209,0.123,12.32,-16.52,-7.63,-0.232,-0.213,-0.828
-1.072,0.213,0.142,19.88,-17.43,-5.95,-0.23,-0.212,-0.835
-1.065,0.203,0.141,25.97,-16.87,-3.78,-0.23,-0.213,-0.828
-1.035,0.159,0.116,45.01,-14.84,3.71,-0.228,-0.217,-0.824
-1.017,0.129,0.102,46.83,-14.35,4.41,-0.228,-0.221,-0.833
-1.004,0.113,0.086,38.99,-13.09,2.73,-0.226,-0.216,-0.833
-0.999,0.128,0.073,24.36,-11.13,1.05,-0.225,-0.224,-0.831
-1.001,0.162,0.068,8.4,-8.47,0.0,-0.22,-0.224,-0.828
-0.996,0.193,0.063,1.75,-4.2,2.03,-0.225,-0.224,-0.832
-0.981,0.193,0.028,2.94,-1.12,3.78,-0.229,-0.225,-0.832
-0.97,0.192,0.006,2.03,1.82,4.69,-0.228,-0.223,-0.828
-0.96,0.196,-0.002,-1.82,4.62,3.64,-0.225,-0.219,-0.826
-0.957,0.206,-0.002,-5.53,5.95,2.31,-0.231,-0.224,-0.826
-0.956,0.214,0.0,-6.79,6.86,1.82,-0.231,-0.224,-0.831
-0.953,0.205,0.0,-6.23,7.28,1.61,-0.233,-0.223,-0.833
-0.958,0.19,-0.007,-6.65,6.79,1.75,-0.228,-0.219,-0.831
-0.976,0.188,-0.011,-9.24,5.39,0.63,-0.228,-0.22,-0.832
-0.994,0.2,-0.012,-13.3,4.48,-0.7,-0.228,-0.218,-0.835
-0.998,0.214,-0.013,-15.12,3.78,-1.68,-0.231,-0.222,-0.836
-0.988,0.225,-0.011,-13.51,2.52,-2.03,-0.229,-0.218,-0.841
-0.974,0.22,0.0,-8.47,0.91,-1.19,-0.231,-0.219,-0.834
-0.97,0.212,0.013,-0.21,-3.15,-0.28,-0.23,-0.222,-0.839
-0.978,0.2,0.027,3.71,-5.11,0.0,-0.231,-0.216,-0.839
-0.984,0.196,0.039,6.51,-7.14,0.63,-0.229,-0.217,-0.84
-0.989,0.196,0.05,9.24,-8.19,1.75,-0.229,-0.215,-0.838
-0.992,0.191,0.061,11.83,-9.31,2.66,-0.227,-0.219,-0.832
-0.993,0.188,0.069,13.79,-9.59,3.85,-0.23,-0.216,-0.832
-0.995,0.189,0.066,16.52,-9.59,5.32,-0.23,-0.217,-0.828
-1.001,0.185,0.073,17.01,-9.38,5.67,-0.229,-0.218,-0.828
-0.994,0.186,0.073,16.03,-7.63,6.23,-0.23,-0.218,-0.829
-0.989,0.172,0.077,13.86,-6.09,5.53,-0.228,-0.22,-0.834
-0.989,0.175,0.079,11.13,-5.67,5.25,-0.231,-0.219,-0.828
-1.0,0.174,0.072,7.35,-5.46,3.22,-0.23,-0.221,-0.833
-1.015,0.177,0.063,3.29,-4.76,3.43,-0.23,-0.218,-0.827
-1.003,0.184,0.059,2.1,-2.94,3.64,-0.228,-0.216,-0.83
-0.99,0.194,0.053,1.26,-1.75,3.29,-0.23,-0.217,-0.831
-0.993,0.201,0.055,1.96,-2.38,2.66,-0.23,-0.215,-0.837
-0.998,0.203,0.062,4.34,-2.8,2.52,-0.229,-0.215,-0.83
-0.993,0.204,0.066,7.42,-1.68,2.45,-0.234,-0.212,-0.828
-0.98,0.182,0.056,12.25,-0.84,2.45,-0.232,-0.222,-0.834
-0.981,0.169,0.057,13.09,-1.19,2.45,-0.229,-0.223,-0.829
-0.983,0.163,0.054,10.5,-0.63,1.75,-0.228,-0.219,-0.834
-0.989,0.163,0.054,6.93,0.14,0.84,-0.227,-0.215,-0.838
-0.999,0.171,0.061,3.57,0.28,-17.85,-0.229,-0.215,-0.838
-1.002,0.175,0.059,0.56,1.75,-1.26,-0.224,-0.213,-0.836
-0.985,0.165,0.05,0.49,2.8,-1.05,-0.227,-0.219,-0.841
-0.975,0.156,0.042,0.77,2.45,-0.63,-0.235,-0.216,-0.834
-0.978,0.152,0.039,-0.56,1.68,-0.49,-0.235,-0.217,-0.84
-0.986,0.159,0.032,-4.69,1.19,-1.47,-0.229,-0.217,-0.841
-0.997,0.167,0.019,-7.49,1.26,-2.8,-0.227,-0.22,-0.834
-1.001,0.174,0.005,-8.26,1.47,-3.01,-0.229,-0.218,-0.841
-0.994,0.182,-0.003,-6.79,0.77,-2.66,-0.232,-0.221,-0.839
-0.973,0.173,-0.008,-2.45,0.49,-1.61,-0.232,-0.219,-0.843
-0.972,0.164,-0.004,-0.42,-0.91,-0.56,-0.229,-0.214,-0.85
-0.973,0.158,0.008,-0.42,-2.1,-0.28,-0.226,-0.217,-0.843
-0.958,0.156,0.016,-1.4,-1.54,-0.35,-0.232,-0.215,-0.842
-0.935,0.161,0.007,-1.96,-1.33,-0.14,-0.233,-0.218,-0.844
-0.934,0.158,0.005,-1.75,-3.43,-0.63,-0.232,-0.218,-0.842
-0.958,0.16,0.019,-1.68,-6.09,0.14,-0.235,-0.213,-0.842
-0.997,0.167,0.012,-2.03,-6.3,1.12,-0.229,-0.212,-0.845
-1.007,0.176,0.025,-2.87,-6.51,2.1,-0.231,-0.218,-0.841
-0.988,0.179,0.034,-3.22,-5.04,2.59,-0.235,-0.216,-0.842
-0.964,0.174,0.035,-3.15,-4.41,3.01,-0.234,-0.216,-0.84
-0.963,0.174,0.037,-3.43,-7.14,2.1,-0.233,-0.216,-0.84
-0.981,0.173,0.057,-4.27,-7.84,1.19,-0.235,-0.217,-0.842
-0.985,0.185,0.061,-4.41,-7.14,1.26,-0.231,-0.216,-0.84
-0.994,0.194,0.061,-2.73,-8.54,1.26,-0.23,-0.216,-0.837
-1.008,0.193,0.066,0.42,-9.87,1.82,-0.227,-0.214,-0.832
-1.02,0.181,0.067,3.15,-9.52,3.08,-0.23,-0.212,-0.837
-1.026,0.186,0.081,4.13,-8.12,3.43,-0.23,-0.213,-0.83
-1.026,0.194,0.091,3.85,-7.28,3.36,-0.234,-0.215,-0.837
-1.027,0.2,0.089,5.11,-6.79,3.22,-0.231,-0.218,-0.834
-1.033,0.195,0.082,6.93,-6.79,3.15,-0.23,-0.215,-0.833
-1.044,0.192,0.058,10.15,-7.14,2.94,-0.231,-0.219,-0.832
-1.078,0.189,0.06,10.01,-7.42,2.17,-0.228,-0.219,-0.831
-1.129,0.18,0.048,8.96,-6.86,2.38,-0.232,-0.217,-0.832
-1.19,0.198,0.031,7.49,-5.18,0.84,-0.232,-0.216,-0.829
-1.207,0.182,0.019,6.23,-2.66,-0.21,-0.229,-0.218,-0.834
-1.206,0.176,0.018,4.13,-0.7,0.07,-0.234,-0.217,-0.835
-1.194,0.179,0.025,2.66,0.42,-0.56,-0.228,-0.22,-0.834
-1.18,0.181,0.03,2.17,0.49,-1.68,-0.234,-0.218,-0.839
-1.162,0.183,0.042,5.6,0.0,-1.96,-0.231,-0.218,-0.838
-1.142,0.168,0.044,9.59,0.84,-2.1,-0.232,-0.219,-0.833
-1.114,0.149,0.021,12.04,1.82,-1.75,-0.232,-0.219,-0.832
-1.101,0.136,0.006,11.69,1.75,-1.75,-0.233,-0.221,-0.835
-1.104,0.132,0.003,9.24,1.89,-2.38,-0.232,-0.22,-0.83
-1.1,0.136,-0.015,6.72,4.55,-2.24,-0.229,-0.22,-0.833
-1.103,0.137,-0.041,4.2,6.16,-2.38,-0.232,-0.221,-0.835
-1.098,0.125,-0.05,3.57,7.84,-2.17,-0.227,-0.224,-0.843
-1.071,0.113,-0.061,2.52,10.15,-2.59,-0.232,-0.224,-0.841
-1.039,0.106,-0.066,1.19,10.99,-3.5,-0.232,-0.228,-0.841
-1.016,0.096,-0.062,0.7,10.29,-4.76,-0.234,-0.226,-0.846
-1.004,0.091,-0.052,3.36,8.61,-5.25,-0.23,-0.224,-0.846
-1.013,0.076,-0.047,6.02,7.42,-5.53,-0.229,-0.226,-0.852
-1.02,0.059,-0.048,7.7,7.0,-5.53,-0.231,-0.225,-0.852
-1.01,0.04,-0.053,8.05,7.98,-4.9,-0.232,-0.224,-0.855
-0.984,0.021,-0.067,6.09,9.1,-4.76,-0.235,-0.226,-0.852
-0.966,0.011,-0.069,2.17,8.26,-4.76,-0.237,-0.225,-0.861
-0.969,0.024,-0.058,-4.06,5.46,-4.9,-0.238,-0.23,-0.857
-0.975,0.04,-0.056,-6.58,4.97,-4.76,-0.234,-0.229,-0.857
-0.979,0.05,-0.05,-6.93,4.41,-4.41,-0.232,-0.229,-0.86
-0.981,0.061,-0.045,-6.58,4.06,-3.22,-0.235,-0.229,-0.858
-0.979,0.071,-0.044,-6.3,2.8,-2.17,-0.235,-0.228,-0.854
-0.978,0.071,-0.039,-5.95,1.05,-0.07,-0.234,-0.226,-0.863
-0.966,0.08,-0.04,-3.92,-0.35,0.91,-0.237,-0.231,-0.862
-0.959,0.087,-0.043,-1.19,-2.17,2.1,-0.234,-0.226,-0.861
-0.968,0.089,-0.046,1.61,-3.57,3.22,-0.235,-0.226,-0.867
-0.992,0.085,-0.043,3.22,-5.39,4.69,-0.238,-0.227,-0.86
-1.011,0.081,-0.028,2.24,-5.53,5.81,-0.229,-0.223,-0.861
-1.005,0.071,-0.037,-2.52,-3.36,5.81,-0.236,-0.225,-0.863
-0.985,0.064,-0.039,-6.79,-3.64,7.21,-0.233,-0.226,-0.862
-0.981,0.062,-0.029,-9.45,-3.78,8.75,-0.236,-0.225,-0.861
-0.996,0.064,-0.003,-13.09,-4.69,9.73,-0.234,-0.22,-0.864
-0.989,0.065,0.022,-15.68,-4.69,11.13,-0.234,-0.218,-0.867
-0.934,0.055,0.05,-17.5,-2.1,14.49,-0.233,-0.217,-0.862
-0.839,0.069,0.086,-19.6,-1.54,15.33,-0.233,-0.215,-0.864
-0.831,0.091,0.099,-20.72,-5.25,14.98,-0.235,-0.206,-0.859
-0.875,0.127,0.114,-20.51,-10.15,16.1,-0.236,-0.206,-0.857
-0.925,0.157,0.133,-17.43,-12.95,18.62,-0.235,-0.207,-0.859
-0.945,0.176,0.153,-10.29,-12.6,25.62,-0.24,-0.199,-0.861
-0.939,0.193,0.172,2.1,-11.69,30.17,-0.236,-0.2,-0.853
-0.952,0.205,0.186,8.75,-13.51,33.25,-0.232,-0.195,-0.852
-0.991,0.223,0.192,12.6,-16.24,34.23,-0.234,-0.19,-0.853
-1.036,0.229,0.204,15.96,-17.08,33.88,-0.238,-0.183,-0.844
-1.059,0.237,0.218,18.55,-16.45,34.09,-0.234,-0.178,-0.846
-1.074,0.246,0.227,20.16,-15.05,31.99,-0.233,-0.18,-0.851
-1.123,0.239,0.245,20.65,-17.01,28.28,-0.235,-0.173,-0.848
-1.122,0.214,0.259,19.88,-14.35,24.78,-0.231,-0.172,-0.844
-1.07,0.186,0.252,16.73,-7.07,21.35,-0.231,-0.172,-0.848
-1.003,0.161,0.247,10.43,-3.15,15.75,-0.233,-0.174,-0.847
-0.947,0.138,0.23,0.21,-1.33,4.62,-0.236,-0.168,-0.85
-0.942,0.13,0.207,-15.82,-2.17,-1.75,-0.234,-0.169,-0.849
-0.974,0.151,0.216,-23.73,-3.57,-6.09,-0.232,-0.174,-0.842
-0.98,0.179,0.227,-26.67,-1.05,-9.17,-0.239,-0.171,-0.838
-0.945,0.175,0.221,-23.31,3.5,-10.57,-0.236,-0.177,-0.844
-0.897,0.158,0.22,-16.59,4.2,-9.24,-0.236,-0.173,-0.849
-0.857,0.139,0.221,-10.92,3.71,-8.75,-0.237,-0.174,-0.85
-0.796,0.125,0.204,-5.04,5.04,-9.03,-0.237,-0.172,-0.85
-0.766,0.131,0.177,-3.15,5.46,-9.17,-0.236,-0.174,-0.848
-0.778,0.141,0.153,-0.42,2.24,-8.82,-0.233,-0.175,-0.848
-0.842,0.149,0.147,2.52,-3.08,-7.7,-0.237,-0.18,-0.849
-0.927,0.162,0.146,5.88,-5.53,-6.09,-0.235,-0.176,-0.847
-1.012,0.171,0.155,8.89,-3.36,-5.04,-0.232,-0.178,-0.841
-1.013,0.166,0.148,9.45,-0.77,-4.83,-0.234,-0.181,-0.844
-0.987,0.155,0.136,8.89,0.77,-5.46,-0.232,-0.18,-0.85
-0.96,0.147,0.129,6.23,-0.7,-8.19,-0.233,-0.181,-0.847
-0.945,0.146,0.145,3.08,-2.8,-12.18,-0.237,-0.183,-0.847
-0.932,0.157,0.163,2.52,-4.97,-15.89,-0.23,-0.187,-0.852
-0.912,0.178,0.18,10.85,-8.96,-18.48,-0.233,-0.189,-0.847
-0.921,0.18,0.181,21.42,-13.16,-19.04,-0.239,-0.188,-0.85
-0.947,0.16,0.183,32.55,-16.66,-18.9,-0.236,-0.191,-0.849
-0.962,0.13,0.182,40.81,-17.01,-18.62,-0.234,-0.201,-0.848
-0.963,0.104,0.164,44.24,-14.35,-18.48,-0.231,-0.201,-0.84
-1.021,0.109,0.142,42.7,-15.05,-19.32,-0.23,-0.204,-0.845
-1.147,0.127,0.16,37.66,-19.6,-20.65,-0.228,-0.211,-0.845
-1.222,0.113,0.185,33.25,-7.63,-18.13,-0.227,-0.216,-0.839
-1.114,0.087,0.149,26.95,8.75,-14.63,-0.227,-0.22,-0.842
-0.98,0.062,0.104,17.22,18.34,-14.07,-0.226,-0.225,-0.848
-0.891,0.054,0.074,2.94,21.14,-16.66,-0.229,-0.219,-0.85
-0.862,0.07,0.053,-13.16,22.82,-20.02,-0.226,-0.227,-0.853
-0.883,0.076,0.032,-31.57,23.94,-23.31,-0.227,-0.226,-0.852
-0.936,0.113,0.016,-51.38,24.29,-24.71,-0.224,-0.228,-0.851
-1.017,0.168,-0.002,-59.99,26.67,-25.55,-0.226,-0.228,-0.852
-1.045,0.194,-0.021,-65.1,30.03,-25.2,-0.224,-0.229,-0.861
-1.046,0.214,-0.041,-67.34,31.71,-23.31,-0.229,-0.229,-0.861
-1.025,0.229,-0.054,-67.41,31.43,-21.14,-0.23,-0.228,-0.868
-0.991,0.242,-0.063,-66.71,29.75,-18.34,-0.229,-0.229,-0.865
-0.947,0.268,-0.057,-62.02,22.47,-16.17,-0.229,-0.226,-0.868
-0.941,0.289,-0.047,-54.32,15.33,-13.37,-0.232,-0.232,-0.872
-0.96,0.307,-0.034,-42.28,7.28,-9.59,-0.232,-0.233,-0.871
-0.978,0.321,-0.014,-26.74,-0.42,-5.25,-0.233,-0.228,-0.872
-0.973,0.334,0.001,-8.19,-5.67,-0.77,-0.231,-0.228,-0.874
-0.957,0.342,0.004,20.86,-15.05,6.37,-0.234,-0.225,-0.875
-0.956,0.325,0.006,36.68,-20.65,9.52,-0.227,-0.226,-0.869
-0.954,0.304,0.001,46.83,-24.29,10.99,-0.229,-0.227,-0.863
-0.95,0.295,0.004,53.48,-27.02,11.69,-0.233,-0.226,-0.863
-0.951,0.294,0.011,57.05,-28.7,11.83,-0.235,-0.229,-0.864
-0.96,0.292,0.017,59.85,-29.68,11.55,-0.232,-0.229,-0.859
-0.982,0.282,0.036,62.649,-30.59,10.22,-0.229,-0.23,-0.867
-0.997,0.274,0.048,61.95,-29.82,8.82,-0.228,-0.229,-0.86
-1.011,0.27,0.06,58.87,-28.98,7.0,-0.223,-0.237,-0.857
-1.019,0.272,0.08,54.669,-27.16,5.04,-0.224,-0.237,-0.857
-1.012,0.275,0.094,50.33,-24.5,2.38,-0.225,-0.238,-0.852
-0.992,0.273,0.1,46.48,-21.28,-0.49,-0.222,-0.239,-0.855
-0.969,0.255,0.101,41.44,-18.13,-5.39,-0.232,-0.243,-0.856
-0.967,0.246,0.106,36.96,-16.38,-9.1,-0.226,-0.245,-0.85
-0.972,0.24,0.111,31.43,-14.35,-14.49,-0.221,-0.243,-0.852
-0.975,0.237,0.112,25.34,-11.76,-19.39,-0.221,-0.248,-0.848
-0.973,0.235,0.107,19.67,-8.33,-23.59,-0.219,-0.249,-0.85
-0.975,0.232,0.099,15.26,-6.3,-28.28,-0.219,-0.254,-0.852
-0.986,0.221,0.096,8.19,-3.64,-30.59,-0.215,-0.261,-0.856
-0.986,0.216,0.093,3.57,-1.26,-32.34,-0.216,-0.266,-0.859
-0.97,0.212,0.083,-0.98,0.84,-33.95,-0.21,-0.275,-0.856
-0.946,0.207,0.076,-5.04,3.22,-35.07,-0.212,-0.275,-0.852
-0.929,0.201,0.059,-9.1,4.2,-35.7,-0.21,-0.283,-0.856
-0.94,0.197,0.05,-13.65,2.94,-35.35,-0.207,-0.281,-0.852
-0.972,0.204,0.043,-20.51,2.59,-33.81,-0.208,-0.288,-0.859
-0.981,0.204,0.022,-24.29,3.01,-31.43,-0.212,-0.29,-0.857
-0.988,0.212,0.026,-25.83,2.1,-27.16,-0.206,-0.294,-0.85
-0.996,0.234,0.05,-24.71,0.63,-21.0,-0.209,-0.295,-0.855
-1.0,0.265,0.078,-2.87,-0.28,-11.69,-0.206,-0.296,-0.852
-0.997,0.275,0.064,-11.27,-0.63,-6.3,-0.205,-0.3,-0.854
-1.0,0.249,0.045,-5.39,-1.47,-2.24,-0.206,-0.296,-0.849
-1.006,0.226,0.033,-4.48,-2.17,0.7,-0.206,-0.296,-0.855
-1.017,0.216,0.028,-7.91,-2.87,1.05,-0.208,-0.297,-0.859
-1.04,0.234,0.046,-11.97,-4.34,1.26,-0.202,-0.292,-0.854
-1.054,0.264,0.073,-12.74,-5.46,2.31,-0.208,-0.294,-0.853
-1.014,0.266,0.067,-5.39,-4.48,3.92,-0.204,-0.292,-0.849
-0.972,0.247,0.05,0.28,-5.18,6.51,-0.205,-0.294,-0.848
-0.952,0.231,0.047,2.66,-7.63,7.7,-0.202,-0.292,-0.848
-0.957,0.227,0.059,2.17,-10.92,9.24,-0.209,-0.29,-0.848
-0.964,0.245,0.077,2.87,-12.6,12.95,-0.204,-0.29,-0.849
-0.963,0.305,0.099,11.9,-14.98,21.63,-0.21,-0.293,-0.848
-0.968,0.288,0.109,21.98,-16.94,28.42,-0.207,-0.289,-0.84
-0.977,0.281,0.115,31.22,-18.13,35.21,-0.207,-0.283,-0.842
-0.991,0.267,0.123,36.75,-17.99,39.76,-0.209,-0.276,-0.843
-1.004,0.254,0.137,36.33,-16.45,41.72,-0.209,-0.28,-0.842
-1.012,0.235,0.143,28.77,-13.58,40.04,-0.21,-0.278,-0.843
-1.013,0.208,0.141,7.21,-6.79,36.12,-0.214,-0.272,-0.836
-1.009,0.201,0.125,-10.57,-2.31,30.8,-0.211,-0.268,-0.845
-1.002,0.207,0.11,-28.07,2.03,24.01,-0.221,-0.263,-0.848
-0.993,0.224,0.094,-43.47,6.72,17.22,-0.215,-0.258,-0.85
-0.98,0.252,0.073,-54.39,10.92,11.48,-0.217,-0.251,-0.844
-0.985,0.311,0.079,-58.31,14.0,5.25,-0.219,-0.249,-0.85
-0.985,0.342,0.076,-52.43,15.75,3.08,-0.218,-0.251,-0.854
