ax,ay,az,gx,gy,gz,mx,my,mz
-0.903,0.414,0.136,0.21,-2.87,-1.26,-0.118,-0.433,-0.919
-0.901,0.415,0.135,0.21,-2.94,-1.12,-0.118,-0.431,-0.918
-0.902,0.416,0.136,0.42,-3.29,-0.84,-0.119,-0.435,-0.92
-0.905,0.416,0.133,0.7,-3.22,-0.42,-0.116,-0.437,-0.916
-0.905,0.417,0.133,0.63,-3.5,-0.42,-0.122,-0.432,-0.922
-0.903,0.419,0.133,0.63,-3.92,-0.14,-0.125,-0.429,-0.915
-0.907,0.419,0.137,0.56,-4.13,-0.21,-0.128,-0.433,-0.912
-0.907,0.418,0.135,0.49,-4.27,-0.14,-0.119,-0.431,-0.913
-0.904,0.418,0.136,0.42,-4.06,-0.28,-0.122,-0.433,-0.917
-0.903,0.419,0.137,0.28,-4.13,-0.56,-0.125,-0.429,-0.919
-0.905,0.419,0.138,0.14,-4.41,-0.35,-0.121,-0.427,-0.923
-0.905,0.419,0.137,0.42,-4.34,0.0,-0.119,-0.43,-0.922
-0.906,0.421,0.139,0.49,-4.48,0.28,-0.121,-0.429,-0.922
-0.906,0.424,0.14,0.56,-4.2,0.35,-0.121,-0.429,-0.916
-0.906,0.423,0.14,0.56,-4.13,0.07,-0.122,-0.428,-0.919
-0.907,0.424,0.141,0.28,-3.92,-0.14,-0.119,-0.429,-0.92
-0.908,0.425,0.143,0.35,-4.2,-0.35,-0.118,-0.427,-0.924
-0.906,0.423,0.147,0.49,-3.71,-0.56,-0.117,-0.424,-0.921
-0.902,0.416,0.143,0.49,-3.57,-0.56,-0.125,-0.426,-0.918
-0.907,0.417,0.139,-0.14,-3.43,-0.63,-0.126,-0.428,-0.921
-0.911,0.422,0.143,-0.42,-3.29,-0.56,-0.125,-0.426,-0.923
-0.91,0.427,0.143,-0.14,-3.15,-0.21,-0.123,-0.43,-0.92
-0.907,0.423,0.137,0.35,-3.36,-0.14,-0.124,-0.429,-0.917
-0.908,0.421,0.138,0.14,-3.78,-0.49,-0.123,-0.433,-0.918
-0.907,0.421,0.14,0.28,-3.71,-0.7,-0.126,-0.434,-0.914
-0.903,0.418,0.139,0.56,-3.5,-0.42,-0.123,-0.433,-0.917
-0.905,0.416,0.144,0.84,-3.43,-0.28,-0.12,-0.435,-0.921
-0.908,0.414,0.14,0.63,-3.36,-0.56,-0.122,-0.433,-0.919
-0.91,0.414,0.137,-0.07,-3.43,-0.84,-0.12,-0.433,-0.917
-0.912,0.414,0.135,-0.63,-3.43,-1.12,-0.12,-0.435,-0.916
-0.907,0.413,0.135,-0.49,-3.99,-1.61,-0.122,-0.434,-0.917
-0.901,0.407,0.136,0.14,-4.34,-1.61,-0.12,-0.437,-0.912
-0.9,0.401,0.135,0.56,-5.04,-1.61,-0.123,-0.436,-0.91
-0.904,0.396,0.136,0.84,-5.95,-1.47,-0.119,-0.436,-0.909
-0.908,0.394,0.139,1.47,-6.44,-0.63,-0.117,-0.435,-0.913
-0.907,0.392,0.143,1.75,-6.79,-0.14,-0.12,-0.432,-0.91
-0.909,0.391,0.143,2.24,-7.21,0.28,-0.117,-0.433,-0.911
-0.909,0.389,0.144,2.45,-7.49,0.28,-0.117,-0.433,-0.92
-0.912,0.389,0.147,2.24,-7.7,0.21,-0.116,-0.431,-0.916
-0.92,0.386,0.151,2.38,-7.84,0.35,-0.122,-0.428,-0.911
-0.923,0.387,0.154,2.17,-7.56,1.12,-0.119,-0.433,-0.912
-0.92,0.39,0.154,1.82,-7.07,1.82,-0.114,-0.426,-0.917
-0.913,0.392,0.151,1.75,-6.51,2.38,-0.117,-0.433,-0.913
-0.907,0.393,0.147,1.54,-6.23,2.66,-0.121,-0.435,-0.917
-0.906,0.398,0.142,1.61,-5.95,3.15,-0.121,-0.437,-0.917
-0.908,0.403,0.137,2.03,-5.53,3.85,-0.119,-0.437,-0.914
-0.91,0.408,0.13,2.31,-5.04,4.55,-0.121,-0.434,-0.91
-0.91,0.419,0.125,2.52,-4.27,5.11,-0.121,-0.432,-0.916
-0.911,0.428,0.12,2.38,-3.99,5.11,-0.117,-0.432,-0.919
-0.91,0.433,0.109,2.31,-3.36,4.76,-0.119,-0.435,-0.916
-0.908,0.442,0.101,1.12,-2.8,3.29,-0.12,-0.432,-0.915
-0.906,0.445,0.097,0.77,-2.38,2.38,-0.121,-0.432,-0.914
-0.906,0.448,0.095,0.49,-2.52,1.61,-0.123,-0.429,-0.91
-0.906,0.451,0.094,0.84,-2.17,1.61,-0.124,-0.435,-0.913
-0.904,0.448,0.086,1.33,-2.17,1.19,-0.121,-0.433,-0.908
-0.918,0.448,0.084,0.98,-2.45,0.91,-0.122,-0.434,-0.914
-0.943,0.455,0.079,-1.05,-2.24,0.7,-0.126,-0.43,-0.907
-0.944,0.464,0.074,-1.96,-2.59,0.91,-0.124,-0.431,-0.912
-0.942,0.471,0.075,-2.38,-3.15,0.35,-0.129,-0.432,-0.911
-0.926,0.474,0.074,-1.61,-4.2,0.0,-0.127,-0.429,-0.91
-0.912,0.473,0.078,0.21,-5.39,-0.91,-0.126,-0.429,-0.911
-0.9,0.461,0.089,2.94,-6.93,-1.82,-0.125,-0.43,-0.913
-0.88,0.436,0.092,5.11,-7.98,-2.66,-0.125,-0.431,-0.911
-0.856,0.415,0.11,5.81,-8.61,-2.87,-0.128,-0.43,-0.913
-0.849,0.409,0.117,6.3,-8.26,-2.73,-0.124,-0.431,-0.914
-0.856,0.399,0.116,7.07,-7.77,-2.03,-0.125,-0.434,-0.908
-0.87,0.388,0.117,6.79,-7.49,-1.68,-0.126,-0.429,-0.909
-0.885,0.39,0.121,5.74,-6.44,-0.91,-0.125,-0.433,-0.91
-0.894,0.394,0.123,4.69,-4.69,0.42,-0.126,-0.427,-0.905
-0.892,0.395,0.118,4.06,-3.78,0.63,-0.125,-0.433,-0.916
-0.888,0.386,0.11,2.94,-2.87,0.07,-0.122,-0.43,-0.914
-0.891,0.38,0.11,1.12,-2.1,-0.63,-0.121,-0.43,-0.913
-0.89,0.375,0.11,-0.84,-1.12,-1.33,-0.122,-0.43,-0.913
-0.88,0.38,0.108,-2.8,0.14,-1.96,-0.126,-0.429,-0.909
-0.868,0.373,0.097,-3.08,0.14,-2.73,-0.126,-0.428,-0.911
-0.88,0.367,0.098,-3.22,-0.35,-2.8,-0.123,-0.435,-0.908
-0.918,0.368,0.107,-3.5,-0.14,-1.05,-0.123,-0.431,-0.905
-0.913,0.366,0.105,-3.5,0.84,1.05,-0.123,-0.43,-0.907
-0.893,0.36,0.099,-4.2,1.89,2.73,-0.121,-0.43,-0.905
-0.883,0.357,0.096,-5.95,1.89,3.36,-0.125,-0.431,-0.909
-0.881,0.362,0.097,-7.98,1.89,3.15,-0.121,-0.43,-0.917
-0.88,0.364,0.093,-9.38,1.96,2.8,-0.121,-0.43,-0.916
-0.872,0.369,0.098,-8.82,2.17,3.29,-0.129,-0.427,-0.913
-0.856,0.367,0.094,-7.77,1.75,3.5,-0.123,-0.422,-0.91
-0.87,0.359,0.093,-7.14,1.05,4.06,-0.12,-0.425,-0.911
-0.885,0.357,0.097,-7.98,0.98,5.11,-0.125,-0.424,-0.912
-0.871,0.352,0.093,-9.24,1.12,6.72,-0.119,-0.426,-0.905
-0.859,0.359,0.089,-10.64,0.84,8.12,-0.124,-0.424,-0.904
-0.866,0.369,0.092,-11.55,0.07,9.1,-0.128,-0.427,-0.907
-0.873,0.377,0.089,-11.2,-0.77,9.94,-0.13,-0.424,-0.907
-0.895,0.39,0.088,-10.15,-2.24,10.99,-0.133,-0.422,-0.905
-0.93,0.403,0.101,-7.84,-2.73,12.11,-0.13,-0.417,-0.901
-0.899,0.392,0.097,-6.79,-2.38,12.81,-0.133,-0.419,-0.9
-0.867,0.388,0.085,-7.56,-2.87,11.76,-0.136,-0.416,-0.9
-0.878,0.397,0.086,-7.98,-4.41,9.87,-0.135,-0.409,-0.896
-0.909,0.41,0.099,-7.21,-5.53,9.1,-0.138,-0.413,-0.902
-0.937,0.421,0.107,-4.55,-5.81,10.43,-0.139,-0.404,-0.897
-0.939,0.414,0.113,-0.77,-5.53,13.79,-0.139,-0.406,-0.894
-0.893,0.398,0.112,0.07,-4.83,13.3,-0.138,-0.405,-0.892
-0.875,0.393,0.103,-1.89,-4.06,11.2,-0.142,-0.401,-0.896
-0.887,0.397,0.101,-4.62,-3.22,7.56,-0.135,-0.405,-0.892
-0.924,0.405,0.115,-5.74,-2.52,5.46,-0.139,-0.404,-0.894
-0.971,0.412,0.127,-5.46,-1.19,5.11,-0.139,-0.403,-0.89
-0.997,0.409,0.124,-5.53,0.91,6.51,-0.143,-0.4,-0.896
-0.986,0.394,0.117,-6.65,3.57,7.77,-0.141,-0.399,-0.897
-0.965,0.391,0.105,-10.78,5.95,6.23,-0.145,-0.398,-0.895
-0.968,0.391,0.091,-15.61,7.21,1.19,-0.143,-0.396,-0.894
-0.984,0.394,0.095,-20.23,7.42,-1.61,-0.153,-0.399,-0.898
-0.973,0.39,0.1,-19.46,7.21,-2.8,-0.152,-0.398,-0.896
-0.942,0.386,0.097,-16.52,5.74,-3.01,-0.143,-0.398,-0.896
-0.911,0.379,0.089,-11.97,3.29,-3.29,-0.148,-0.397,-0.89
-0.901,0.371,0.085,-6.65,0.28,-3.57,-0.147,-0.399,-0.888
-0.906,0.361,0.091,-0.84,-2.59,-3.01,-0.143,-0.399,-0.894
-0.91,0.352,0.105,5.32,-4.83,-0.56,-0.148,-0.4,-0.896
-0.907,0.343,0.112,10.99,-7.14,1.96,-0.145,-0.398,-0.891
-0.911,0.323,0.113,16.17,-7.77,4.76,-0.146,-0.397,-0.888
-0.945,0.325,0.115,15.89,-7.14,7.07,-0.149,-0.395,-0.889
-0.982,0.334,0.117,13.58,-6.02,8.68,-0.146,-0.395,-0.888
-1.001,0.334,0.113,9.87,-4.48,10.15,-0.147,-0.398,-0.888
-1.012,0.34,0.112,4.34,-2.59,10.29,-0.146,-0.394,-0.888
-1.015,0.354,0.109,-0.98,-0.98,9.52,-0.145,-0.396,-0.891
-0.997,0.366,0.1,-5.25,0.91,7.35,-0.152,-0.395,-0.896
-0.977,0.381,0.088,-8.33,1.33,2.1,-0.149,-0.394,-0.897
-0.971,0.394,0.086,-6.16,0.49,-1.19,-0.152,-0.391,-0.896
-0.971,0.38,0.087,-1.89,-0.21,-2.59,-0.148,-0.391,-0.894
-0.984,0.361,0.091,2.1,-1.54,-2.45,-0.15,-0.395,-0.892
-0.995,0.338,0.09,3.92,-1.82,-0.91,-0.15,-0.398,-0.896
-0.979,0.322,0.081,2.66,-1.61,0.77,-0.152,-0.398,-0.898
-0.956,0.321,0.072,-0.28,-1.75,1.68,-0.152,-0.392,-0.897
-0.95,0.331,0.074,-3.15,-3.29,2.31,-0.155,-0.392,-0.904
-0.951,0.343,0.081,-2.8,-3.99,3.01,-0.153,-0.39,-0.893
-0.954,0.353,0.086,-1.12,-4.9,3.78,-0.151,-0.395,-0.893
-0.963,0.357,0.091,1.54,-6.09,4.27,-0.15,-0.39,-0.895
-0.975,0.354,0.1,4.34,-6.79,4.27,-0.149,-0.387,-0.893
-0.976,0.345,0.104,5.67,-6.44,3.85,-0.15,-0.393,-0.889
-0.942,0.323,0.099,3.99,-4.83,1.82,-0.15,-0.395,-0.89
-0.924,0.307,0.09,1.33,-4.2,0.0,-0.15,-0.384,-0.891
-0.924,0.303,0.087,-1.4,-4.55,-1.19,-0.149,-0.393,-0.883
-0.942,0.313,0.087,-2.59,-5.25,-0.77,-0.153,-0.39,-0.889
-0.961,0.327,0.091,-1.33,-5.95,1.61,-0.153,-0.389,-0.89
-0.974,0.338,0.09,1.47,-6.3,4.83,-0.151,-0.388,-0.883
-0.981,0.346,0.086,3.85,-6.58,8.54,-0.148,-0.392,-0.889
-0.961,0.35,0.08,3.64,-6.44,8.47,-0.15,-0.385,-0.882
-0.946,0.355,0.074,1.89,-6.86,6.65,-0.155,-0.383,-0.886
-0.961,0.361,0.085,0.98,-7.14,3.92,-0.152,-0.387,-0.89
-0.98,0.36,0.088,0.63,-7.14,1.89,-0.153,-0.382,-0.887
-0.982,0.357,0.091,0.98,-6.79,0.7,-0.155,-0.386,-0.885
-0.982,0.358,0.097,1.82,-5.95,-0.7,-0.152,-0.387,-0.886
-0.968,0.346,0.093,2.66,-5.39,-1.19,-0.157,-0.385,-0.887
-0.968,0.338,0.091,2.66,-5.04,-1.54,-0.158,-0.386,-0.887
-0.978,0.334,0.087,1.75,-4.27,-1.75,-0.156,-0.387,-0.884
-0.985,0.336,0.083,-0.21,-3.29,-1.82,-0.155,-0.386,-0.884
-0.984,0.347,0.078,-2.45,-2.94,-2.52,-0.149,-0.384,-0.885
-0.979,0.355,0.071,-3.78,-2.87,-3.57,-0.151,-0.386,-0.883
-0.946,0.348,0.062,-3.36,-3.29,-4.41,-0.15,-0.388,-0.886
-0.95,0.347,0.061,-3.01,-4.34,-4.76,-0.15,-0.388,-0.882
-0.958,0.339,0.062,-1.75,-5.04,-4.41,-0.154,-0.386,-0.886
-0.952,0.329,0.064,-0.84,-5.81,-3.64,-0.154,-0.389,-0.885
-0.931,0.329,0.065,-0.91,-5.53,-2.8,-0.151,-0.39,-0.883
-0.914,0.334,0.059,-0.42,-6.02,-2.59,-0.154,-0.387,-0.878
-0.913,0.34,0.056,2.17,-7.63,-3.22,-0.151,-0.388,-0.879
-0.952,0.333,0.064,3.92,-7.7,-3.36,-0.154,-0.391,-0.88
-0.978,0.334,0.074,4.2,-7.0,-2.87,-0.152,-0.394,-0.87
-0.985,0.331,0.078,3.64,-5.95,-2.45,-0.148,-0.391,-0.877
-0.973,0.32,0.075,2.03,-4.27,-2.17,-0.149,-0.389,-0.884
-0.954,0.315,0.071,-1.05,-2.8,-2.94,-0.145,-0.391,-0.88
-0.945,0.315,0.066,-4.62,-1.19,-4.48,-0.147,-0.39,-0.879
-0.947,0.317,0.063,-7.35,0.14,-5.04,-0.145,-0.39,-0.878
-0.958,0.316,0.058,-8.68,0.42,-4.9,-0.149,-0.389,-0.884
-0.966,0.315,0.059,-8.4,0.77,-3.85,-0.151,-0.391,-0.877
-0.957,0.316,0.056,-8.19,0.84,-1.61,-0.148,-0.394,-0.877
-0.953,0.32,0.052,-7.63,-0.07,0.21,-0.145,-0.393,-0.876
-0.964,0.33,0.052,-7.56,-0.42,1.26,-0.149,-0.393,-0.877
-0.976,0.342,0.055,-7.49,-0.56,2.03,-0.146,-0.389,-0.883
-0.978,0.349,0.056,-7.63,-0.49,2.24,-0.151,-0.388,-0.887
-0.953,0.339,0.056,-7.98,-0.49,1.47,-0.149,-0.392,-0.875
-0.926,0.328,0.053,-8.54,-0.98,0.28,-0.149,-0.389,-0.878
-0.915,0.328,0.053,-8.54,-1.89,-0.21,-0.146,-0.382,-0.876
-0.918,0.329,0.058,-7.0,-3.15,0.42,-0.151,-0.385,-0.875
-0.928,0.334,0.07,-3.78,-4.62,2.17,-0.147,-0.387,-0.877
-0.924,0.333,0.068,-0.98,-5.18,4.34,-0.149,-0.388,-0.872
-0.918,0.332,0.064,0.91,-5.95,5.67,-0.152,-0.388,-0.875
-0.929,0.332,0.067,0.42,-6.02,5.04,-0.147,-0.389,-0.868
-0.929,0.336,0.065,-0.77,-5.67,4.34,-0.149,-0.387,-0.867
-0.932,0.344,0.065,-1.05,-5.81,3.36,-0.15,-0.387,-0.871
-0.943,0.346,0.066,-0.35,-5.95,2.8,-0.143,-0.385,-0.876
-0.955,0.344,0.069,0.49,-6.23,2.94,-0.15,-0.388,-0.875
-0.967,0.341,0.068,0.49,-5.88,3.15,-0.148,-0.392,-0.867
-0.965,0.34,0.065,-1.05,-4.83,3.15,-0.15,-0.39,-0.866
-0.957,0.343,0.063,-2.03,-4.34,2.03,-0.155,-0.383,-0.87
-0.96,0.35,0.061,-2.17,-4.27,1.19,-0.149,-0.386,-0.867
-0.967,0.353,0.056,-1.75,-3.85,0.28,-0.149,-0.383,-0.872
-0.979,0.351,0.06,-0.77,-4.13,0.21,-0.151,-0.384,-0.87
-0.979,0.344,0.061,-0.14,-3.99,0.14,-0.151,-0.382,-0.869
-0.958,0.34,0.062,-0.49,-3.22,0.28,-0.153,-0.387,-0.868
-0.942,0.339,0.058,-0.98,-3.15,-0.56,-0.149,-0.384,-0.865
-0.945,0.338,0.058,-0.84,-3.08,-1.68,-0.149,-0.383,-0.861
-0.954,0.329,0.064,-0.56,-2.8,-2.8,-0.147,-0.383,-0.867
-0.962,0.325,0.065,-1.54,-2.31,-2.87,-0.149,-0.384,-0.867
-0.969,0.324,0.059,-1.75,-2.17,-2.8,-0.146,-0.381,-0.866
-0.952,0.321,0.056,-1.82,-1.54,-2.59,-0.15,-0.383,-0.864
-0.943,0.32,0.055,-1.33,-1.89,-2.52,-0.146,-0.388,-0.864
-0.949,0.318,0.051,-0.84,-2.03,-2.45,-0.148,-0.383,-0.862
-0.956,0.312,0.052,-0.35,-1.96,-2.31,-0.15,-0.382,-0.863
-0.956,0.311,0.052,-0.14,-2.17,-1.89,-0.147,-0.386,-0.868
-0.943,0.31,0.051,-0.28,-2.03,-1.4,-0.145,-0.387,-0.865
-0.93,0.313,0.049,0.77,-2.87,-0.63,-0.144,-0.388,-0.869
-0.951,0.323,0.051,2.31,-3.22,0.0,-0.145,-0.385,-0.87
-0.977,0.326,0.058,3.85,-3.29,0.84,-0.149,-0.387,-0.866
-0.988,0.324,0.06,3.5,-2.52,1.12,-0.145,-0.387,-0.865
-0.978,0.323,0.053,1.12,-1.12,0.91,-0.145,-0.385,-0.865
-0.959,0.325,0.045,-1.61,0.07,-0.42,-0.144,-0.382,-0.867
-0.945,0.332,0.042,-3.71,0.56,-1.89,-0.149,-0.386,-0.866
-0.95,0.332,0.039,-3.71,0.21,-3.01,-0.146,-0.387,-0.873
-0.967,0.331,0.042,-2.73,-0.42,-2.73,-0.152,-0.387,-0.872
-0.98,0.328,0.05,-1.12,-0.14,-0.91,-0.15,-0.386,-0.872
-0.951,0.327,0.043,-1.33,0.28,-0.35,-0.15,-0.385,-0.867
-0.934,0.327,0.04,-1.68,0.35,-1.05,-0.15,-0.391,-0.868
-0.935,0.324,0.037,-2.38,0.14,-2.24,-0.149,-0.382,-0.871
-0.941,0.323,0.036,-2.94,0.42,-2.8,-0.151,-0.389,-0.87
-0.954,0.324,0.04,-2.8,-0.35,-2.38,-0.146,-0.387,-0.87
-0.953,0.325,0.042,-2.45,-0.49,-1.33,-0.147,-0.382,-0.864
-0.938,0.329,0.036,-2.31,-0.98,-0.07,-0.149,-0.384,-0.868
-0.939,0.336,0.038,-1.12,-2.24,-0.28,-0.148,-0.388,-0.865
-0.948,0.334,0.047,-0.49,-2.24,-0.28,-0.149,-0.391,-0.867
-0.953,0.327,0.046,-0.91,-1.89,-0.63,-0.147,-0.392,-0.866
-0.947,0.328,0.041,-2.66,-1.54,-0.98,-0.148,-0.391,-0.871
-0.938,0.341,0.041,-3.43,-1.54,-1.05,-0.147,-0.39,-0.87
-0.944,0.355,0.042,-1.12,-2.38,-0.91,-0.148,-0.389,-0.867
-0.977,0.344,0.036,0.21,-2.8,-0.77,-0.148,-0.388,-0.867
-1.005,0.339,0.038,-0.77,-2.94,-0.49,-0.147,-0.387,-0.865
-1.035,0.355,0.044,-3.57,-2.66,-0.56,-0.15,-0.389,-0.871
-1.05,0.372,0.043,-5.11,-2.38,0.21,-0.148,-0.388,-0.873
-1.051,0.385,0.036,-5.25,-2.03,0.35,-0.146,-0.387,-0.87
-1.06,0.394,0.038,-3.99,-2.17,0.77,-0.145,-0.387,-0.865
-1.071,0.389,0.041,-3.15,-2.24,-0.14,-0.145,-0.388,-0.868
-1.082,0.385,0.045,-4.69,-1.61,-2.03,-0.149,-0.387,-0.868
-1.091,0.397,0.046,-6.16,-0.98,-3.29,-0.109,-0.385,-0.864
-1.078,0.4,0.041,-6.65,-0.42,-4.62,-0.151,-0.384,-0.866
-1.061,0.399,0.034,-6.02,-0.7,-5.04,-0.145,-0.387,-0.874
-1.044,0.391,0.033,-5.04,-1.68,-5.81,-0.14,-0.391,-0.87
-1.024,0.38,0.03,-3.99,-2.73,-6.3,-0.148,-0.392,-0.873
-1.012,0.377,0.031,-2.87,-4.06,-6.23,-0.142,-0.387,-0.868
-1.004,0.381,0.034,0.63,-6.37,-5.04,-0.142,-0.389,-0.872
-1.001,0.381,0.037,4.13,-7.98,-3.85,-0.141,-0.395,-0.871
-0.999,0.385,0.044,7.14,-9.31,-2.52,-0.142,-0.39,-0.872
-0.988,0.386,0.046,9.52,-9.73,-1.47,-0.146,-0.394,-0.872
-0.976,0.382,0.047,10.92,-9.38,-1.61,-0.141,-0.394,-0.869
-0.965,0.374,0.049,10.85,-9.03,-2.59,-0.141,-0.393,-0.87
-0.951,0.37,0.049,9.38,-7.77,-3.99,-0.138,-0.39,-0.871
-0.946,0.369,0.048,7.0,-6.51,-4.97,-0.141,-0.392,-0.87
-0.957,0.372,0.046,6.3,-5.67,-5.32,-0.14,-0.396,-0.874
-0.972,0.374,0.045,5.81,-5.25,-5.11,-0.14,-0.396,-0.873
-0.977,0.377,0.04,4.69,-4.41,-4.97,-0.142,-0.396,-0.874
-0.973,0.382,0.036,3.01,-3.85,-5.11,-0.142,-0.396,-0.87
-0.961,0.384,0.034,1.05,-3.36,-6.23,-0.14,-0.395,-0.871
-0.946,0.38,0.031,0.35,-3.08,-7.77,-0.14,-0.399,-0.871
-0.935,0.377,0.033,0.49,-4.06,-9.73,-0.136,-0.403,-0.869
-0.923,0.368,0.035,2.45,-4.41,-9.38,-0.14,-0.402,-0.874
-0.922,0.364,0.039,4.9,-5.25,-8.54,-0.135,-0.404,-0.868
-0.911,0.355,0.04,7.0,-5.88,-7.0,-0.133,-0.405,-0.866
-0.89,0.348,0.039,7.91,-6.3,-5.81,-0.138,-0.41,-0.872
-0.869,0.345,0.038,7.49,-6.65,-4.97,-0.136,-0.407,-0.868
-0.837,0.35,0.042,7.77,-7.77,-4.97,-0.128,-0.409,-0.87
-0.824,0.355,0.042,9.38,-8.47,-4.9,-0.132,-0.411,-0.873
-0.812,0.352,0.045,12.67,-9.8,-4.83,-0.132,-0.409,-0.866
-0.814,0.35,0.05,15.4,-10.5,-4.69,-0.131,-0.412,-0.864
-0.822,0.349,0.057,17.92,-11.06,-3.85,-0.129,-0.41,-0.872
-0.818,0.351,0.061,19.74,-10.92,-2.66,-0.13,-0.414,-0.874
-0.816,0.358,0.068,20.58,-9.8,-2.52,-0.129,-0.415,-0.873
-0.814,0.358,0.068,20.79,-8.12,-3.15,-0.127,-0.413,-0.874
-0.809,0.35,0.065,19.18,-6.72,-4.62,-0.126,-0.42,-0.877
-0.827,0.355,0.071,17.01,-5.04,-5.46,-0.125,-0.42,-0.87
-0.844,0.36,0.067,14.21,-3.36,-6.51,-0.122,-0.42,-0.87
-0.873,0.365,0.063,11.76,-1.89,-6.3,-0.125,-0.421,-0.88
-0.896,0.363,0.063,8.4,0.0,-5.74,-0.124,-0.421,-0.879
-0.894,0.367,0.056,0.42,3.22,-5.25,-0.125,-0.424,-0.883
-0.884,0.396,0.045,-3.64,4.34,-5.88,-0.118,-0.424,-0.88
-0.886,0.413,0.044,-5.32,4.9,-6.58,-0.129,-0.421,-0.88
-0.892,0.421,0.044,-4.97,4.62,-7.42,-0.122,-0.422,-0.877
-0.894,0.426,0.045,-3.29,4.41,-7.7,-0.119,-0.423,-0.882
-0.896,0.425,0.048,-1.19,3.85,-7.91,-0.116,-0.426,-0.891
-0.895,0.414,0.05,1.19,3.36,-7.56,-0.118,-0.426,-0.882
-0.895,0.414,0.047,1.19,3.85,-7.56,-0.118,-0.432,-0.887
-0.904,0.422,0.051,1.4,3.5,-7.28,-0.12,-0.426,-0.885
-0.911,0.424,0.056,2.24,3.64,-6.86,-0.124,-0.426,-0.887
-0.9,0.422,0.053,2.03,3.92,-6.79,-0.123,-0.431,-0.891
-0.891,0.417,0.053,1.12,3.92,-7.42,-0.12,-0.434,-0.893
-0.896,0.419,0.056,-0.56,4.06,-7.91,-0.116,-0.436,-0.887
-0.913,0.427,0.064,-0.28,4.06,-7.35,-0.113,-0.432,-0.896
-0.914,0.426,0.065,0.28,4.69,-6.23,-0.112,-0.429,-0.891
-0.911,0.42,0.066,0.35,5.04,-5.11,-0.117,-0.433,-0.891
-0.911,0.42,0.065,-1.05,5.81,-4.83,-0.118,-0.437,-0.895
-0.914,0.428,0.062,-3.01,6.09,-4.76,-0.12,-0.441,-0.893
-0.912,0.43,0.062,-4.34,7.0,-4.9,-0.119,-0.436,-0.895
-0.908,0.428,0.064,-5.6,7.28,-4.97,-0.115,-0.438,-0.892
-0.904,0.428,0.065,-6.37,7.35,-5.04,-0.115,-0.438,-0.887
-0.893,0.425,0.065,-6.16,7.35,-4.76,-0.115,-0.442,-0.888
-0.886,0.42,0.068,-5.11,6.79,-4.55,-0.117,-0.44,-0.894
-0.886,0.414,0.067,-4.41,6.37,-3.99,-0.118,-0.439,-0.889
-0.894,0.417,0.068,-3.99,6.23,-2.73,-0.118,-0.437,-0.896
-0.911,0.424,0.068,-3.71,5.88,-1.4,-0.118,-0.44,-0.893
-0.929,0.432,0.067,-3.36,5.39,1.26,-0.119,-0.438,-0.891
-0.932,0.45,0.069,-3.43,5.25,2.45,-0.118,-0.435,-0.891
-0.928,0.456,0.067,-2.94,4.34,2.38,-0.115,-0.438,-0.894
-0.928,0.455,0.071,-2.38,3.57,2.03,-0.117,-0.439,-0.888
-0.916,0.445,0.074,-2.17,3.01,1.54,-0.114,-0.439,-0.894
-0.901,0.437,0.075,-2.38,2.38,1.26,-0.116,-0.434,-0.897
-0.895,0.433,0.084,-0.91,1.12,2.03,-0.119,-0.433,-0.894
-0.882,0.427,0.084,0.49,-0.14,3.36,-0.123,-0.434,-0.901
-0.879,0.428,0.088,1.96,-1.33,4.55,-0.122,-0.434,-0.9
-0.886,0.433,0.097,3.71,-2.17,5.88,-0.118,-0.433,-0.9
-0.893,0.438,0.101,5.18,-2.8,6.58,-0.121,-0.437,-0.901
-0.896,0.439,0.103,5.95,-2.87,6.93,-0.119,-0.434,-0.897
-0.907,0.441,0.109,6.23,-3.08,6.72,-0.123,-0.431,-0.901
-0.918,0.442,0.119,4.48,-2.38,5.32,-0.12,-0.427,-0.901
-0.925,0.446,0.121,3.08,-1.89,4.2,-0.124,-0.426,-0.899
-0.918,0.444,0.124,2.59,-1.33,3.15,-0.123,-0.429,-0.903
-0.903,0.437,0.129,2.66,-0.63,1.96,-0.121,-0.43,-0.9
-0.895,0.429,0.126,2.38,-0.07,0.63,-0.12,-0.431,-0.903
-0.9,0.418,0.126,2.52,0.49,-0.07,-0.12,-0.43,-0.903
-0.898,0.406,0.132,1.82,1.19,0.28,-0.12,-0.427,-0.907
-0.898,0.407,0.131,0.56,1.82,0.77,-0.123,-0.427,-0.909
-0.897,0.412,0.125,0.0,2.03,1.26,-0.119,-0.423,-0.906
-0.891,0.412,0.123,0.21,1.75,1.54,-0.122,-0.429,-0.901
-0.891,0.413,0.123,0.49,1.54,1.89,-0.125,-0.422,-0.907
-0.894,0.419,0.122,0.84,0.63,2.24,-0.122,-0.422,-0.907
-0.891,0.425,0.121,1.75,0.14,2.66,-0.124,-0.425,-0.907
-0.896,0.429,0.125,3.22,-0.77,2.94,-0.123,-0.426,-0.913
-0.901,0.43,0.129,4.27,-1.61,3.22,-0.122,-0.427,-0.908
-0.897,0.433,0.128,5.32,-2.03,3.08,-0.124,-0.43,-0.912
-0.89,0.433,0.133,6.51,-2.38,2.31,-0.128,-0.426,-0.908
-0.888,0.429,0.136,7.35,-2.73,1.89,-0.122,-0.43,-0.911
-0.89,0.425,0.141,7.63,-2.59,1.26,-0.124,-0.427,-0.911
-0.894,0.422,0.141,7.35,-2.38,1.12,-0.126,-0.426,-0.909
-0.902,0.421,0.141,6.86,-1.96,0.77,-0.126,-0.425,-0.906
-0.908,0.422,0.14,6.02,-1.68,0.63,-0.124,-0.428,-0.91
-0.91,0.425,0.137,4.83,-0.7,0.07,-0.122,-0.429,-0.91
-0.919,0.431,0.139,4.27,-0.84,-0.77,-0.124,-0.422,-0.913
-0.924,0.429,0.141,3.29,-0.56,-1.82,-0.128,-0.428,-0.918
-0.919,0.426,0.142,2.31,0.07,-2.66,-0.128,-0.426,-0.915
-0.916,0.423,0.142,1.54,0.42,-3.78,-0.122,-0.428,-0.915
-0.912,0.413,0.144,0.84,0.84,-4.48,-0.122,-0.43,-0.914
-0.91,0.403,0.145,0.21,1.54,-4.76,-0.123,-0.427,-0.918
