ax,ay,az,gx,gy,gz,mx,my,mz
-0.907,0.409,0.145,-0.42,-5.11,1.19,-0.121,-0.427,-0.919
-0.907,0.409,0.146,0.49,-5.39,1.47,-0.125,-0.425,-0.917
-0.908,0.411,0.147,0.91,-5.25,1.61,-0.119,-0.426,-0.92
-0.909,0.414,0.148,0.98,-5.25,1.33,-0.122,-0.426,-0.917
-0.906,0.418,0.147,0.84,-4.69,1.47,-0.12,-0.424,-0.918
-0.907,0.421,0.147,0.91,-4.9,0.77,-0.118,-0.425,-0.919
-0.91,0.423,0.149,1.19,-4.41,0.35,-0.125,-0.421,-0.917
-0.914,0.426,0.146,1.26,-3.92,0.07,-0.121,-0.426,-0.92
-0.917,0.429,0.145,1.19,-3.78,-0.35,-0.12,-0.422,-0.912
-0.912,0.429,0.141,1.19,-3.22,-0.7,-0.124,-0.426,-0.918
-0.909,0.428,0.139,1.12,-3.15,-1.47,-0.126,-0.424,-0.914
-0.907,0.427,0.136,1.12,-2.87,-1.89,-0.124,-0.426,-0.919
-0.909,0.425,0.135,1.26,-3.01,-2.52,-0.123,-0.425,-0.915
-0.91,0.424,0.133,1.4,-2.94,-2.8,-0.118,-0.43,-0.917
-0.914,0.421,0.131,1.82,-2.8,-2.8,-0.12,-0.427,-0.919
-0.912,0.416,0.13,2.17,-2.73,-3.01,-0.121,-0.421,-0.917
-0.91,0.412,0.129,1.61,-2.8,-3.36,-0.118,-0.431,-0.919
-0.91,0.408,0.127,1.12,-2.66,-3.99,-0.121,-0.428,-0.922
-0.912,0.405,0.128,0.91,-2.87,-4.2,-0.122,-0.428,-0.915
-0.91,0.401,0.125,0.77,-3.08,-4.06,-0.12,-0.428,-0.922
-0.91,0.395,0.124,0.84,-3.15,-3.78,-0.118,-0.427,-0.916
-0.912,0.391,0.122,0.63,-3.64,-3.15,-0.113,-0.425,-0.915
-0.91,0.387,0.125,0.42,-3.85,-2.59,-0.115,-0.431,-0.913
-0.903,0.382,0.121,-0.42,-4.06,-2.59,-0.121,-0.43,-0.91
-0.905,0.377,0.116,-1.12,-4.62,-2.66,-0.119,-0.429,-0.909
-0.918,0.38,0.118,-1.75,-5.18,-2.31,-0.118,-0.427,-0.917
-0.923,0.383,0.121,-1.96,-5.74,-1.47,-0.118,-0.425,-0.92
-0.918,0.382,0.119,-1.54,-6.16,-0.7,-0.12,-0.431,-0.912
-0.904,0.376,0.12,-1.19,-7.28,-0.42,-0.119,-0.431,-0.915
-0.906,0.389,0.127,-1.05,-8.4,-1.12,-0.116,-0.433,-0.915
-0.911,0.382,0.125,0.63,-8.68,-1.33,-0.119,-0.432,-0.914
-0.918,0.375,0.136,1.89,-8.82,-0.98,-0.118,-0.423,-0.911
-0.927,0.367,0.142,1.96,-8.61,-0.63,-0.119,-0.427,-0.907
-0.931,0.36,0.143,1.33,-8.05,0.35,-0.118,-0.428,-0.911
-0.931,0.363,0.141,-0.7,-7.21,0.91,-0.118,-0.426,-0.91
-0.926,0.369,0.14,-1.82,-5.53,3.29,-0.117,-0.425,-0.909
-0.927,0.378,0.135,-1.82,-5.11,5.25,-0.11,-0.424,-0.911
-0.957,0.394,0.125,-0.98,-4.83,8.4,-0.116,-0.423,-0.912
-0.962,0.402,0.11,-0.91,-4.34,11.2,-0.114,-0.421,-0.907
-0.938,0.407,0.096,-1.75,-4.13,13.3,-0.12,-0.422,-0.909
-0.901,0.42,0.091,-2.73,-4.76,13.58,-0.121,-0.421,-0.908
-0.872,0.439,0.085,-1.82,-6.3,12.32,-0.123,-0.42,-0.908
-0.868,0.452,0.088,1.96,-8.54,10.57,-0.125,-0.422,-0.905
-0.906,0.436,0.101,9.66,-10.36,10.57,-0.12,-0.416,-0.91
-0.924,0.419,0.111,11.27,-9.66,11.62,-0.125,-0.418,-0.911
-0.928,0.412,0.11,8.4,-7.7,12.11,-0.13,-0.418,-0.912
-0.917,0.414,0.102,3.29,-5.67,11.27,-0.128,-0.416,-0.91
-0.903,0.429,0.093,-2.17,-3.99,8.75,-0.125,-0.416,-0.906
-0.89,0.45,0.093,-5.25,-3.36,5.6,-0.133,-0.415,-0.91
-0.878,0.453,0.086,-4.62,-3.08,2.59,-0.13,-0.414,-0.91
-0.875,0.44,0.084,-1.4,-3.36,0.28,-0.126,-0.412,-0.914
-0.884,0.411,0.083,-0.42,-3.15,-0.42,-0.128,-0.409,-0.907
-0.885,0.403,0.081,-1.33,-2.87,-0.21,-0.127,-0.414,-0.903
-0.89,0.401,0.079,-2.87,-2.45,-0.21,-0.128,-0.414,-0.911
-0.887,0.402,0.081,-4.48,-1.82,-0.77,-0.129,-0.418,-0.91
-0.873,0.405,0.084,-6.16,-1.54,-1.68,-0.129,-0.417,-0.904
-0.858,0.404,0.086,-6.3,-1.26,-3.43,-0.127,-0.42,-0.905
-0.854,0.405,0.094,-5.6,-0.91,-4.97,-0.131,-0.417,-0.903
-0.857,0.391,0.103,-4.55,-0.28,-6.23,-0.127,-0.416,-0.901
-0.859,0.375,0.102,-4.34,1.33,-8.05,-0.128,-0.417,-0.908
-0.885,0.363,0.109,-6.58,3.15,-8.82,-0.126,-0.41,-0.906
-0.893,0.363,0.107,-8.89,5.25,-8.89,-0.125,-0.418,-0.9
-0.867,0.355,0.099,-11.27,7.07,-9.1,-0.125,-0.42,-0.902
-0.837,0.356,0.09,-14.56,8.19,-10.85,-0.13,-0.419,-0.905
-0.836,0.364,0.092,-16.24,8.12,-12.67,-0.125,-0.42,-0.905
-0.852,0.367,0.096,-14.77,7.56,-13.79,-0.127,-0.416,-0.9
-0.87,0.357,0.102,-12.88,7.63,-12.88,-0.124,-0.424,-0.902
-0.869,0.348,0.1,-11.83,8.05,-11.13,-0.124,-0.424,-0.894
-0.854,0.337,0.095,-11.97,8.4,-9.38,-0.122,-0.426,-0.894
-0.844,0.333,0.086,-13.65,8.12,-8.26,-0.126,-0.429,-0.896
-0.855,0.339,0.086,-15.12,7.14,-6.58,-0.121,-0.427,-0.898
-0.865,0.346,0.094,-14.21,5.67,-2.52,-0.117,-0.424,-0.9
-0.864,0.355,0.097,-12.32,4.9,2.24,-0.119,-0.424,-0.895
-0.887,0.371,0.098,-9.87,3.71,6.58,-0.12,-0.426,-0.904
-0.919,0.376,0.096,-7.7,3.15,10.78,-0.122,-0.421,-0.905
-0.941,0.376,0.096,-7.91,3.29,14.91,-0.129,-0.42,-0.899
-0.95,0.384,0.095,-10.64,3.92,17.43,-0.125,-0.419,-0.896
-0.945,0.399,0.09,-16.45,5.04,18.27,-0.127,-0.416,-0.896
-0.959,0.432,0.083,-18.62,4.34,17.15,-0.13,-0.417,-0.901
-0.979,0.458,0.088,-18.48,3.92,15.96,-0.128,-0.412,-0.898
-0.985,0.478,0.083,-15.54,3.57,14.84,-0.132,-0.413,-0.895
-0.999,0.487,0.083,-10.99,2.17,13.51,-0.134,-0.412,-0.895
-1.004,0.479,0.087,-7.14,1.05,11.9,-0.134,-0.407,-0.886
-0.985,0.472,0.084,-5.81,-0.14,9.66,-0.14,-0.404,-0.892
-0.966,0.466,0.082,-5.11,-1.26,6.65,-0.138,-0.405,-0.891
-0.955,0.46,0.087,-2.59,-3.78,3.01,-0.142,-0.405,-0.893
-0.962,0.438,0.103,-0.49,-4.69,2.87,-0.136,-0.407,-0.89
-0.946,0.422,0.103,1.26,-5.11,3.64,-0.14,-0.407,-0.889
-0.923,0.412,0.102,2.24,-6.02,4.41,-0.137,-0.404,-0.889
-0.902,0.4,0.105,2.66,-6.86,4.41,-0.14,-0.403,-0.89
-0.881,0.395,0.107,2.66,-7.7,3.99,-0.138,-0.403,-0.888
-0.876,0.395,0.107,3.5,-8.26,3.5,-0.135,-0.401,-0.886
-0.877,0.392,0.108,5.18,-8.54,4.06,-0.136,-0.401,-0.886
-0.9,0.386,0.119,8.4,-8.26,5.46,-0.141,-0.401,-0.886
-0.916,0.382,0.116,8.33,-7.49,6.51,-0.139,-0.399,-0.887
-0.931,0.381,0.112,6.93,-6.44,6.79,-0.135,-0.397,-0.886
-0.943,0.381,0.11,3.5,-5.25,5.88,-0.144,-0.396,-0.883
-0.955,0.382,0.108,-0.56,-3.29,4.2,-0.14,-0.396,-0.884
-0.953,0.389,0.103,-4.06,-2.17,2.17,-0.142,-0.399,-0.885
-0.941,0.399,0.078,-5.6,-0.84,0.63,-0.146,-0.397,-0.886
-0.928,0.412,0.061,15.19,-3.15,-0.28,-0.141,-0.402,-0.882
-0.916,0.405,0.056,9.73,-6.09,0.84,-0.141,-0.399,-0.888
-0.916,0.374,0.059,18.34,-9.52,2.52,-0.145,-0.4,-0.887
-0.929,0.339,0.061,22.19,-12.18,4.69,-0.145,-0.399,-0.885
-0.938,0.331,0.06,23.03,-13.02,7.21,-0.142,-0.398,-0.887
-0.982,0.341,0.081,20.23,-13.44,8.68,-0.142,-0.395,-0.889
-1.022,0.363,0.086,18.69,-12.88,11.97,-0.14,-0.393,-0.894
-1.028,0.374,0.08,17.29,-10.99,14.63,-0.141,-0.396,-0.89
-1.024,0.392,0.085,15.26,-10.64,14.42,-0.141,-0.392,-0.889
-1.003,0.381,0.084,12.95,-9.45,11.41,-0.145,-0.392,-0.89
-0.979,0.367,0.079,8.89,-8.05,6.72,-0.145,-0.391,-0.893
-0.967,0.354,0.082,4.13,-7.21,1.33,-0.15,-0.395,-0.894
-0.966,0.354,0.087,1.26,-6.72,-2.73,-0.143,-0.392,-0.891
-0.969,0.352,0.093,3.92,-7.07,-3.92,-0.144,-0.394,-0.885
-0.969,0.334,0.094,8.19,-7.49,-2.1,-0.144,-0.394,-0.888
-0.955,0.322,0.074,11.41,-7.7,0.28,-0.142,-0.396,-0.889
-0.941,0.331,0.069,13.3,-9.31,2.31,-0.14,-0.398,-0.888
-0.927,0.356,0.062,16.94,-11.13,3.57,-0.145,-0.4,-0.891
-0.936,0.372,0.06,23.8,-14.42,4.55,-0.144,-0.395,-0.89
-0.963,0.377,0.062,35.98,-17.78,6.44,-0.145,-0.401,-0.888
-0.99,0.345,0.071,40.6,-18.2,8.19,-0.142,-0.399,-0.889
-1.009,0.325,0.084,39.41,-17.01,7.56,-0.144,-0.401,-0.89
-1.013,0.312,0.084,32.27,-13.79,6.02,-0.144,-0.398,-0.889
-1.005,0.311,0.079,21.63,-10.01,3.01,-0.142,-0.401,-0.889
-0.993,0.322,0.075,11.41,-6.3,-0.7,-0.143,-0.401,-0.89
-0.982,0.327,0.076,4.41,-3.85,-5.32,-0.142,-0.402,-0.898
-0.978,0.313,0.077,-1.33,-1.19,-7.14,-0.143,-0.398,-0.898
-0.972,0.302,0.072,-3.43,0.42,-7.56,-0.148,-0.403,-0.9
-0.97,0.292,0.066,-5.11,1.4,-6.44,-0.143,-0.408,-0.899
-0.974,0.292,0.062,-7.14,2.24,-4.97,-0.14,-0.406,-0.896
-0.963,0.293,0.054,-9.59,3.15,-3.64,-0.147,-0.401,-0.894
-0.944,0.306,0.043,-12.11,3.01,-1.68,-0.144,-0.406,-0.89
-0.936,0.324,0.039,-12.39,0.77,0.77,-0.144,-0.405,-0.895
-0.951,0.349,0.045,-9.94,-1.12,1.82,-0.142,-0.403,-0.891
-0.977,0.365,0.054,-7.21,-2.59,3.08,-0.145,-0.403,-0.891
-0.989,0.375,0.058,-4.48,-2.94,4.06,-0.145,-0.403,-0.889
-0.98,0.369,0.055,-2.31,-2.87,4.2,-0.145,-0.398,-0.896
-0.959,0.366,0.05,-2.1,-2.87,3.15,-0.145,-0.398,-0.891
-0.946,0.365,0.054,-3.08,-3.22,-0.42,-0.143,-0.396,-0.886
-0.948,0.359,0.057,-3.99,-3.36,-3.08,-0.147,-0.395,-0.888
-0.96,0.348,0.066,-3.85,-3.43,-4.2,-0.145,-0.391,-0.887
-0.957,0.34,0.073,-4.27,-2.66,-4.69,-0.145,-0.398,-0.894
-0.938,0.328,0.071,-4.69,-1.75,-4.27,-0.145,-0.4,-0.892
-0.935,0.317,0.066,-5.6,-1.33,-3.92,-0.139,-0.4,-0.892
-0.941,0.321,0.058,-9.24,-0.42,-3.15,-0.141,-0.395,-0.883
-0.945,0.341,0.059,-10.36,0.07,-2.66,-0.141,-0.397,-0.888
-0.933,0.349,0.057,-9.17,-0.56,-2.17,-0.139,-0.4,-0.891
-0.925,0.338,0.057,-7.35,-1.19,-2.38,-0.141,-0.397,-0.894
-0.934,0.329,0.058,-7.14,-1.75,-2.87,-0.142,-0.398,-0.884
-0.942,0.325,0.064,-8.19,-1.82,-3.29,-0.142,-0.393,-0.891
-0.94,0.324,0.066,-9.1,-1.26,-3.36,-0.141,-0.398,-0.891
-0.932,0.326,0.06,-10.5,-1.33,-2.38,-0.144,-0.392,-0.89
-0.931,0.333,0.058,-10.43,-2.03,-1.89,-0.14,-0.39,-0.884
-0.919,0.338,0.057,-9.8,-2.94,-1.33,-0.141,-0.395,-0.885
-0.923,0.343,0.064,-8.26,-4.34,-0.7,-0.142,-0.394,-0.884
-0.938,0.353,0.066,-6.51,-5.32,-0.07,-0.142,-0.392,-0.881
-0.946,0.365,0.068,-3.5,-5.6,1.05,-0.144,-0.396,-0.878
-0.949,0.366,0.078,0.14,-6.3,2.03,-0.141,-0.394,-0.882
-0.945,0.352,0.075,2.8,-6.09,2.17,-0.137,-0.398,-0.879
-0.951,0.327,0.075,1.4,-5.95,1.47,-0.142,-0.396,-0.881
-0.95,0.329,0.07,-2.17,-4.97,1.19,-0.138,-0.399,-0.882
-0.954,0.342,0.073,-4.76,-4.69,0.7,-0.141,-0.394,-0.883
-0.948,0.35,0.071,-4.97,-4.27,0.98,-0.143,-0.392,-0.882
-0.935,0.35,0.066,-3.22,-4.48,1.19,-0.141,-0.391,-0.875
-0.947,0.351,0.071,-0.07,-5.6,1.12,-0.138,-0.388,-0.883
-0.947,0.344,0.07,1.68,-5.46,1.12,-0.144,-0.397,-0.879
-0.945,0.339,0.068,2.66,-5.32,1.33,-0.14,-0.397,-0.886
-0.948,0.337,0.07,2.73,-5.67,1.05,-0.143,-0.395,-0.88
-0.954,0.339,0.072,2.73,-5.46,0.98,-0.144,-0.393,-0.878
-0.965,0.338,0.074,2.45,-5.04,0.91,-0.137,-0.391,-0.878
-0.962,0.335,0.066,2.17,-4.2,0.91,-0.14,-0.391,-0.883
-0.953,0.332,0.061,0.7,-3.29,0.28,-0.141,-0.389,-0.878
-0.96,0.332,0.064,-0.49,-3.15,0.21,-0.141,-0.391,-0.878
-0.949,0.34,0.059,-1.05,-2.73,0.21,-0.143,-0.394,-0.879
-0.946,0.349,0.054,-0.21,-3.08,0.07,-0.138,-0.393,-0.874
-0.948,0.347,0.059,1.75,-3.29,0.21,-0.141,-0.399,-0.88
-0.944,0.338,0.061,3.5,-3.29,0.28,-0.137,-0.395,-0.881
-0.951,0.334,0.061,3.5,-3.15,0.07,-0.139,-0.395,-0.878
-0.955,0.332,0.06,2.52,-2.52,-0.42,-0.135,-0.394,-0.883
-0.949,0.331,0.055,0.14,-0.7,-1.12,-0.136,-0.397,-0.882
-0.952,0.334,0.049,-1.26,0.0,-1.89,-0.135,-0.391,-0.88
-0.956,0.333,0.044,-2.17,0.56,-2.66,-0.14,-0.395,-0.879
-0.955,0.33,0.038,-2.94,0.35,-3.08,-0.144,-0.392,-0.875
-0.957,0.326,0.037,-3.64,0.49,-3.64,-0.143,-0.398,-0.877
-0.957,0.327,0.034,-3.92,0.28,-3.5,-0.145,-0.399,-0.872
-0.938,0.321,0.031,-2.94,0.14,-2.66,-0.143,-0.396,-0.877
-0.925,0.316,0.025,-0.63,-1.4,-2.03,-0.141,-0.393,-0.873
-0.925,0.304,0.026,-0.07,-2.73,-1.19,-0.14,-0.394,-0.878
-0.945,0.309,0.034,-0.63,-3.36,0.0,-0.144,-0.397,-0.871
-0.951,0.32,0.03,-1.33,-3.22,1.61,-0.143,-0.394,-0.875
-0.954,0.335,0.028,-1.12,-3.57,3.08,-0.143,-0.395,-0.874
-0.959,0.341,0.032,-0.42,-3.99,3.78,-0.147,-0.395,-0.876
-0.959,0.343,0.028,-0.56,-3.78,3.64,-0.146,-0.395,-0.878
-0.958,0.341,0.029,-1.68,-3.57,2.87,-0.143,-0.399,-0.869
-0.962,0.344,0.031,-3.08,-3.43,1.96,-0.147,-0.396,-0.875
-0.955,0.344,0.031,-3.85,-3.22,1.61,-0.141,-0.394,-0.873
-0.948,0.351,0.033,-4.41,-3.15,0.91,-0.147,-0.394,-0.868
-0.953,0.343,0.046,-3.5,-3.01,0.63,-0.14,-0.388,-0.875
-0.953,0.332,0.05,-2.73,-2.45,0.77,-0.146,-0.396,-0.877
-0.954,0.32,0.05,-3.08,-1.54,0.42,-0.147,-0.393,-0.872
-0.965,0.321,0.049,-4.34,-1.33,0.42,-0.146,-0.393,-0.874
-0.992,0.328,0.046,-7.0,-0.7,0.7,-0.147,-0.394,-0.875
-0.999,0.345,0.046,-7.84,-0.35,0.91,-0.149,-0.392,-0.867
-0.987,0.36,0.046,-8.12,0.7,0.98,-0.146,-0.392,-0.872
-0.974,0.362,0.048,-6.86,0.84,1.05,-0.147,-0.392,-0.876
-0.981,0.363,0.046,-5.11,-0.14,0.98,-0.148,-0.389,-0.875
-1.008,0.362,0.048,-3.78,-0.21,1.75,-0.144,-0.392,-0.872
-1.024,0.374,0.031,-5.04,0.63,2.17,-0.145,-0.388,-0.871
-1.015,0.397,0.021,-6.37,0.98,1.68,-0.147,-0.39,-0.867
-1.004,0.403,0.0,-4.83,0.63,1.12,-0.148,-0.388,-0.874
-1.017,0.395,-0.009,-2.31,-0.63,0.7,-0.151,-0.388,-0.875
-1.038,0.38,-0.005,-2.8,-1.96,-0.21,-0.146,-0.391,-0.871
-1.056,0.386,0.006,-6.3,-2.38,-0.56,-0.143,-0.39,-0.864
-1.04,0.404,0.005,-6.72,-3.01,-0.14,-0.147,-0.391,-0.863
-1.027,0.41,0.005,-5.39,-4.13,-0.28,-0.148,-0.39,-0.858
-1.017,0.411,0.004,-2.87,-5.25,-0.56,-0.145,-0.391,-0.868
-1.021,0.411,0.01,0.0,-6.86,-1.47,-0.143,-0.388,-0.862
-1.033,0.401,0.024,3.01,-7.7,-1.82,-0.146,-0.386,-0.853
-1.029,0.388,0.032,4.2,-8.12,-2.52,-0.143,-0.386,-0.863
-1.012,0.375,0.033,3.36,-7.35,-3.22,-0.142,-0.392,-0.862
-0.998,0.376,0.036,2.31,-7.0,-4.2,-0.143,-0.391,-0.862
-0.988,0.373,0.037,2.59,-6.86,-4.76,-0.142,-0.391,-0.86
-0.977,0.365,0.03,3.78,-6.44,-4.97,-0.137,-0.393,-0.861
-0.971,0.351,0.03,4.83,-6.37,-4.9,-0.142,-0.397,-0.865
-0.963,0.35,0.031,4.76,-7.0,-4.76,-0.139,-0.395,-0.858
-0.958,0.357,0.033,5.67,-7.49,-4.41,-0.137,-0.396,-0.872
-0.951,0.363,0.031,7.14,-7.77,-3.78,-0.141,-0.391,-0.869
-0.949,0.361,0.035,9.17,-8.75,-3.71,-0.142,-0.397,-0.869
-0.955,0.36,0.039,10.99,-9.17,-4.41,-0.14,-0.398,-0.866
-0.963,0.358,0.04,12.32,-8.82,-4.55,-0.135,-0.394,-0.868
-0.968,0.354,0.038,12.88,-8.26,-4.55,-0.133,-0.402,-0.864
-0.968,0.347,0.04,12.88,-7.91,-4.55,-0.133,-0.401,-0.869
-0.951,0.344,0.038,11.97,-6.86,-4.41,-0.133,-0.399,-0.868
-0.922,0.345,0.031,11.76,-6.86,-4.55,-0.136,-0.401,-0.865
-0.914,0.343,0.029,12.6,-7.07,-4.62,-0.133,-0.398,-0.875
-0.925,0.343,0.036,13.51,-7.7,-4.41,-0.136,-0.402,-0.87
-0.931,0.347,0.045,14.98,-7.35,-3.5,-0.133,-0.401,-0.871
-0.92,0.346,0.038,15.75,-6.44,-2.73,-0.13,-0.402,-0.875
-0.898,0.336,0.034,15.61,-5.95,-2.52,-0.131,-0.404,-0.872
-0.877,0.332,0.035,14.49,-5.53,-3.64,-0.136,-0.406,-0.872
-0.857,0.329,0.035,12.81,-4.76,-4.76,-0.133,-0.409,-0.872
-0.841,0.329,0.036,13.02,-4.97,-5.39,-0.135,-0.408,-0.874
-0.834,0.328,0.04,15.26,-5.32,-4.97,-0.133,-0.411,-0.879
-0.833,0.319,0.048,17.5,-5.32,-4.55,-0.13,-0.413,-0.884
-0.832,0.316,0.051,18.69,-4.62,-3.01,-0.13,-0.415,-0.879
-0.824,0.312,0.043,18.55,-3.43,-2.31,-0.131,-0.412,-0.883
-0.821,0.31,0.037,17.29,-2.59,-2.66,-0.13,-0.411,-0.885
-0.839,0.312,0.041,14.98,-1.89,-3.36,-0.127,-0.409,-0.885
-0.859,0.314,0.044,11.2,-0.35,-3.57,-0.128,-0.415,-0.884
-0.882,0.332,0.044,9.24,0.91,-2.73,-0.124,-0.417,-0.883
-0.888,0.342,0.038,8.26,1.89,-2.31,-0.124,-0.414,-0.889
-0.886,0.349,0.036,7.07,2.94,-2.03,-0.13,-0.416,-0.892
-0.886,0.352,0.031,5.74,3.22,-2.94,-0.127,-0.417,-0.893
-0.897,0.36,0.03,4.41,3.71,-3.85,-0.127,-0.422,-0.892
-0.92,0.36,0.031,3.36,3.99,-4.2,-0.122,-0.419,-0.895
-0.939,0.36,0.028,1.96,4.34,-3.78,-0.124,-0.416,-0.895
-0.938,0.372,0.024,0.14,4.76,-3.71,-0.121,-0.418,-0.897
-0.939,0.379,0.025,-0.42,4.48,-3.5,-0.126,-0.418,-0.898
-0.939,0.381,0.03,-0.42,4.13,-3.43,-0.129,-0.42,-0.9
-0.934,0.379,0.033,-0.49,4.06,-3.5,-0.131,-0.423,-0.903
-0.934,0.379,0.036,-1.33,3.57,-3.85,-0.129,-0.422,-0.902
-0.938,0.38,0.041,-1.75,3.22,-4.06,-0.129,-0.422,-0.901
-0.944,0.382,0.038,-2.45,2.94,-4.13,-0.13,-0.424,-0.9
-0.942,0.381,0.041,-2.45,3.15,-3.5,-0.127,-0.42,-0.892
-0.92,0.374,0.043,-2.38,2.73,-3.43,-0.125,-0.418,-0.893
-0.899,0.366,0.045,-2.87,2.24,-3.78,-0.123,-0.42,-0.903
-0.887,0.364,0.047,-3.08,1.4,-3.85,-0.126,-0.421,-0.905
-0.885,0.368,0.051,-2.52,0.56,-3.5,-0.126,-0.419,-0.896
-0.885,0.371,0.052,0.56,-0.49,-2.03,-0.126,-0.419,-0.899
-0.905,0.374,0.056,3.29,-1.26,-0.7,-0.125,-0.419,-0.863
-0.929,0.379,0.06,4.62,-1.47,0.63,-0.127,-0.42,-0.897
-0.939,0.387,0.061,4.62,-1.33,1.89,-0.13,-0.415,-0.895
-0.942,0.397,0.061,3.5,-0.42,1.89,-0.129,-0.417,-0.891
-0.949,0.408,0.067,2.17,-0.28,1.26,-0.128,-0.418,-0.896
-0.95,0.417,0.069,1.4,0.63,0.21,-0.131,-0.414,-0.896
-0.951,0.42,0.071,1.19,1.26,-1.26,-0.125,-0.422,-0.897
-0.945,0.413,0.076,1.54,1.75,-2.45,-0.128,-0.419,-0.905
-0.935,0.4,0.086,1.05,3.36,-4.55,-0.124,-0.42,-0.905
-0.93,0.394,0.083,0.14,4.69,-4.9,-0.123,-0.424,-0.902
-0.926,0.387,0.078,-0.56,5.32,-5.39,-0.126,-0.419,-0.9
-0.935,0.379,0.08,-1.75,5.81,-5.74,-0.127,-0.422,-0.902
-0.937,0.372,0.079,-3.64,6.23,-5.67,-0.128,-0.424,-0.905
-0.93,0.374,0.082,-6.02,6.44,-4.97,-0.127,-0.423,-0.906
-0.902,0.382,0.083,-6.93,6.37,-4.83,-0.125,-0.423,-0.911
-0.887,0.386,0.088,-5.88,5.67,-4.83,-0.123,-0.421,-0.908
-0.884,0.39,0.093,-4.06,4.69,-4.83,-0.123,-0.416,-0.912
-0.891,0.384,0.095,-1.4,4.13,-4.69,-0.119,-0.421,-0.918
-0.917,0.382,0.093,0.21,3.43,-4.27,-0.123,-0.423,-0.917
-0.946,0.376,0.097,-0.21,3.64,-3.08,-0.125,-0.421,-0.916
-0.942,0.376,0.092,-1.96,4.27,-1.4,-0.123,-0.422,-0.917
-0.922,0.383,0.089,-5.25,2.94,-1.05,-0.122,-0.421,-0.917
-0.915,0.384,0.086,-6.16,1.96,-0.98,-0.126,-0.419,-0.917
-0.911,0.387,0.086,-5.46,0.63,-0.63,-0.121,-0.423,-0.912
-0.912,0.391,0.09,-3.5,-1.4,0.35,-0.126,-0.425,-0.911
-0.9,0.388,0.094,0.63,-2.8,2.38,-0.122,-0.424,-0.914
-0.887,0.388,0.103,4.9,-4.62,4.2,-0.122,-0.427,-0.908
-0.893,0.4,0.122,9.45,-6.37,6.44,-0.127,-0.424,-0.91
-0.905,0.403,0.126,13.65,-7.21,7.63,-0.124,-0.421,-0.91
-0.916,0.4,0.135,15.68,-6.23,7.14,-0.122,-0.421,-0.91
-0.924,0.4,0.183,13.23,-4.41,4.62,-0.123,-0.425,-0.912
-0.932,0.402,0.158,8.61,-2.52,1.19,-0.126,-0.423,-0.914
-0.939,0.404,0.158,4.27,0.35,-2.31,-0.122,-0.423,-0.914
-0.936,0.406,0.156,0.14,3.43,-4.69,-0.124,-0.422,-0.917
-0.927,0.404,0.157,-3.01,5.6,-6.58,-0.122,-0.418,-0.915
-0.92,0.398,0.146,-5.46,7.56,-8.33,-0.116,-0.421,-0.918
-0.91,0.393,0.14,-7.14,8.96,-9.38,-0.124,-0.42,-0.917
-0.898,0.397,0.138,-8.4,8.82,-9.87,-0.126,-0.425,-0.918
-0.887,0.402,0.136,-8.19,8.05,-10.01,-0.12,-0.427,-0.916
-0.882,0.405,0.135,-4.97,7.07,-9.17,-0.122,-0.426,-0.918
-0.886,0.404,0.137,-2.17,5.81,-7.7,-0.122,-0.429,-0.916
-0.895,0.403,0.14,-0.28,4.62,-5.81,-0.12,-0.43,-0.924
-0.901,0.405,0.142,0.21,4.13,-4.76,-0.119,-0.431,-0.924
-0.905,0.413,0.142,-0.07,3.36,-3.92,-0.121,-0.432,-0.922
-0.915,0.426,0.145,-0.42,3.15,-3.08,-0.122,-0.434,-0.918
-0.922,0.435,0.149,-0.7,2.94,-2.94,-0.119,-0.433,-0.92
-0.926,0.436,0.148,-0.77,3.01,-3.43,-0.119,-0.432,-0.916
-0.934,0.433,0.149,-2.31,3.5,-4.2,-0.12,-0.435,-0.911
-0.922,0.429,0.149,-3.99,4.2,-4.62,-0.121,-0.436,-0.918
-0.91,0.428,0.143,-5.67,4.34,-4.9,-0.12,-0.434,-0.921
-0.912,0.427,0.144,-5.81,4.13,-5.18,-0.122,-0.435,-0.921
-0.905,0.422,0.146,-5.39,3.85,-4.9,-0.113,-0.435,-0.918
-0.899,0.419,0.145,-4.48,3.29,-4.55,-0.121,-0.435,-0.919
-0.897,0.415,0.145,-3.43,2.87,-3.43,-0.117,-0.435,-0.92
-0.893,0.414,0.144,-2.31,1.75,-1.82,-0.117,-0.434,-0.923
-0.887,0.416,0.144,-1.4,0.77,-0.77,-0.121,-0.438,-0.922
-0.888,0.42,0.146,-0.07,0.14,-0.07,-0.12,-0.436,-0.922
-0.896,0.418,0.147,1.26,-0.56,0.42,-0.115,-0.433,-0.926
-0.905,0.416,0.149,1.26,-0.91,0.49,-0.119,-0.435,-0.928
-0.909,0.418,0.148,0.7,-0.63,0.91,-0.122,-0.437,-0.93
-0.912,0.421,0.148,0.28,-0.77,0.7,-0.118,-0.429,-0.927
-0.908,0.419,0.148,-0.07,-0.42,0.7,-0.118,-0.434,-0.92
-0.904,0.418,0.147,-0.49,-0.98,0.35,-0.116,-0.427,-0.925
-0.899,0.418,0.147,-0.56,-1.12,0.21,-0.114,-0.433,-0.932
-0.899,0.414,0.147,-0.77,-1.05,0.14,-0.116,-0.432,-0.929
-0.897,0.407,0.15,-0.77,-1.33,0.21,-0.12,-0.435,-0.922
-0.891,0.405,0.149,-1.33,-1.05,0.84,-0.119,-0.428,-0.925
-0.892,0.409,0.147,-1.75,-1.68,1.12,-0.112,-0.426,-0.924
-0.899,0.417,0.146,-1.33,-1.82,2.1,-0.119,-0.429,-0.93
-0.895,0.421,0.147,-0.49,-2.38,2.59,-0.117,-0.431,-0.928
-0.894,0.423,0.149,0.49,-3.01,3.08,-0.118,-0.434,-0.924
-0.89,0.423,0.152,1.26,-3.43,3.01,-0.121,-0.437,-0.924
-0.893,0.425,0.154,1.33,-3.78,2.87,-0.122,-0.433,-0.928
-0.896,0.427,0.154,1.26,-3.78,2.59,-0.122,-0.429,-0.932
-0.897,0.429,0.157,1.61,-3.64,1.68,-0.121,-0.427,-0.928
