ax,ay,az,gx,gy,gz,mx,my,mz
-0.972,0.206,0.111,-4.97,-1.12,-1.05,-0.205,-0.268,-0.878
-0.994,0.211,0.132,-3.57,-2.31,0.14,-0.203,-0.266,-0.874
-0.96,0.218,0.135,-1.26,-1.05,1.61,-0.204,-0.265,-0.872
-0.929,0.22,0.13,1.68,-2.17,3.43,-0.206,-0.265,-0.875
-0.92,0.215,0.121,4.48,-3.29,4.62,-0.203,-0.267,-0.875
-0.928,0.2,0.101,2.8,-2.8,4.83,-0.204,-0.267,-0.883
-0.958,0.21,0.102,-0.21,-3.08,3.99,-0.205,-0.26,-0.876
-1.004,0.228,0.09,-6.86,-3.85,-0.35,-0.202,-0.266,-0.871
-0.978,0.242,0.105,-7.0,-7.35,-3.99,-0.203,-0.265,-0.868
-0.962,0.255,0.131,1.05,-11.13,-2.31,-0.201,-0.261,-0.871
-0.961,0.261,0.147,8.12,-12.74,-0.49,-0.199,-0.26,-0.861
-0.966,0.259,0.157,16.17,-14.07,1.12,-0.207,-0.263,-0.864
-0.971,0.243,0.165,22.47,-13.93,1.96,-0.197,-0.266,-0.867
-0.976,0.2,0.168,22.75,-10.01,0.7,-0.2,-0.264,-0.859
-0.98,0.192,0.17,18.34,-7.7,-1.12,-0.2,-0.261,-0.868
-0.985,0.185,0.169,12.53,-5.53,-2.8,-0.199,-0.266,-0.866
-0.994,0.181,0.167,5.88,-3.5,-4.48,-0.208,-0.264,-0.871
-0.998,0.185,0.167,-0.28,-1.82,-5.11,-0.197,-0.263,-0.86
-0.997,0.193,0.147,-6.58,1.19,-6.09,-0.197,-0.264,-0.862
-1.002,0.203,0.135,-9.31,0.98,-6.23,-0.204,-0.269,-0.86
-1.012,0.212,0.14,-9.66,1.89,-5.88,-0.2,-0.268,-0.862
-0.989,0.22,0.132,-8.61,3.71,-5.95,-0.199,-0.27,-0.861
-0.968,0.22,0.12,-6.23,2.66,-5.95,-0.2,-0.265,-0.862
-0.97,0.217,0.119,-3.43,0.28,-5.81,-0.197,-0.266,-0.861
-0.973,0.206,0.124,-0.14,-0.42,-5.74,-0.192,-0.266,-0.862
-0.959,0.188,0.124,2.17,-0.21,-5.39,-0.197,-0.267,-0.866
-0.946,0.175,0.114,2.8,-0.35,-5.04,-0.2,-0.268,-0.87
-0.949,0.17,0.113,2.87,-2.03,-3.43,-0.197,-0.272,-0.871
-0.961,0.166,0.115,3.22,-2.45,-1.26,-0.197,-0.267,-0.864
-0.969,0.157,0.112,3.01,-2.38,0.7,-0.194,-0.273,-0.864
-0.979,0.154,0.111,1.82,-2.45,2.8,-0.196,-0.269,-0.861
-0.986,0.152,0.115,-0.07,-2.45,4.48,-0.2,-0.272,-0.862
-0.987,0.155,0.117,-3.01,-2.17,5.46,-0.198,-0.269,-0.858
-0.984,0.17,0.122,-6.09,-1.75,5.95,-0.197,-0.266,-0.857
-0.985,0.187,0.129,-7.98,-0.91,5.25,-0.199,-0.269,-0.861
-0.986,0.194,0.138,-9.8,0.49,3.29,-0.202,-0.262,-0.86
-0.97,0.195,0.149,-10.99,2.73,1.47,-0.199,-0.258,-0.86
-0.957,0.195,0.152,-13.02,4.9,-0.35,-0.201,-0.26,-0.866
-0.946,0.191,0.149,-14.91,7.0,-1.68,-0.197,-0.264,-0.853
-0.948,0.188,0.143,-17.15,8.33,-2.45,-0.201,-0.263,-0.855
-0.969,0.187,0.144,-19.11,9.1,-1.61,-0.202,-0.261,-0.856
-0.99,0.192,0.16,-20.86,10.57,0.98,-0.201,-0.263,-0.856
-0.982,0.198,0.134,-23.03,14.7,5.25,-0.199,-0.261,-0.868
-0.972,0.221,0.113,-24.92,12.46,8.75,-0.198,-0.256,-0.863
-1.027,0.241,0.13,-25.62,9.1,12.53,-0.201,-0.254,-0.868
-1.051,0.265,0.137,-25.97,9.59,16.38,-0.201,-0.248,-0.856
-1.041,0.286,0.128,-24.92,9.73,19.39,-0.2,-0.246,-0.853
-1.029,0.304,0.13,-21.98,7.98,22.61,-0.197,-0.245,-0.859
-1.002,0.322,0.144,-16.52,8.68,25.06,-0.201,-0.244,-0.859
-0.917,0.338,0.144,-12.25,9.66,24.29,-0.204,-0.237,-0.858
-0.864,0.331,0.149,-9.31,8.75,21.91,-0.209,-0.235,-0.86
-0.821,0.323,0.152,-8.12,7.98,18.48,-0.202,-0.23,-0.866
-0.792,0.315,0.148,-8.4,6.72,14.91,-0.207,-0.228,-0.866
-0.784,0.308,0.146,-8.89,4.97,12.18,-0.213,-0.229,-0.865
-0.797,0.308,0.16,-8.89,2.8,10.78,-0.214,-0.227,-0.857
-0.844,0.306,0.172,-8.75,3.43,11.62,-0.213,-0.223,-0.865
-0.814,0.307,0.182,-8.68,4.2,12.81,-0.214,-0.23,-0.866
-0.815,0.302,0.167,-10.43,4.34,14.21,-0.212,-0.223,-0.864
-0.833,0.301,0.15,-14.28,3.36,15.33,-0.211,-0.217,-0.874
-0.867,0.309,0.147,-19.6,2.59,16.59,-0.214,-0.209,-0.866
-0.896,0.328,0.155,-24.85,2.59,17.43,-0.214,-0.208,-0.873
-0.916,0.354,0.164,-28.91,3.64,17.22,-0.216,-0.211,-0.868
-0.942,0.384,0.154,-29.54,3.22,16.1,-0.216,-0.201,-0.868
-0.972,0.39,0.149,-29.19,2.87,14.63,-0.221,-0.199,-0.863
-0.992,0.389,0.15,-28.91,3.08,12.74,-0.221,-0.196,-0.867
-0.991,0.382,0.146,-28.07,3.71,10.01,-0.227,-0.192,-0.87
-0.988,0.386,0.152,-27.44,3.01,7.0,-0.221,-0.194,-0.865
-0.99,0.39,0.181,-27.44,1.47,2.38,-0.219,-0.194,-0.863
-0.983,0.382,0.187,-28.56,1.33,-2.73,-0.22,-0.195,-0.862
-0.95,0.371,0.198,-31.08,3.08,-6.09,-0.219,-0.191,-0.873
-0.898,0.361,0.218,-33.11,4.62,-9.45,-0.217,-0.195,-0.87
-0.841,0.366,0.237,-34.3,5.46,-11.76,-0.222,-0.196,-0.86
-0.749,0.365,0.198,-31.85,8.4,-15.05,-0.224,-0.194,-0.864
-0.72,0.349,0.155,-28.7,6.16,-16.31,-0.227,-0.196,-0.864
-0.736,0.336,0.159,-25.2,1.26,-15.96,-0.225,-0.197,-0.861
-0.737,0.335,0.202,-20.65,-0.21,-16.03,-0.226,-0.204,-0.87
-0.667,0.329,0.232,-13.93,5.32,-17.92,-0.226,-0.205,-0.868
-0.557,0.285,0.201,-4.2,9.73,-24.43,-0.225,-0.208,-0.867
-0.436,0.284,0.152,0.77,8.68,-30.03,-0.224,-0.211,-0.865
-0.465,0.239,0.073,6.3,-0.35,-31.85,-0.226,-0.22,-0.86
-0.623,0.214,0.06,11.06,-16.59,-29.19,-0.225,-0.22,-0.863
-0.883,0.183,0.08,17.64,-27.3,-23.66,-0.226,-0.229,-0.863
-1.228,0.167,0.126,29.47,-29.4,-11.2,-0.226,-0.233,-0.858
-1.509,0.166,0.213,44.52,-4.41,-0.21,-0.222,-0.238,-0.853
-1.274,0.056,0.072,45.22,30.45,-6.65,-0.224,-0.244,-0.864
-1.0,-0.038,-0.047,34.65,37.1,-13.37,-0.226,-0.249,-0.86
-0.89,-0.071,-0.079,15.82,27.51,-23.52,-0.225,-0.248,-0.868
-0.889,-0.091,-0.074,-7.98,18.69,-41.44,-0.225,-0.263,-0.867
-0.943,-0.078,-0.037,-26.04,11.62,-55.72,-0.222,-0.266,-0.869
-1.01,-0.05,0.021,-36.54,7.07,-68.11,-0.225,-0.27,-0.87
-1.053,-0.039,0.11,-31.43,7.91,-68.18,-0.219,-0.28,-0.87
-1.07,-0.043,0.204,-25.34,11.62,-64.75,-0.218,-0.288,-0.869
-1.068,-0.036,0.198,-25.27,19.81,-60.9,-0.216,-0.299,-0.872
-1.038,-0.047,0.09,-39.41,32.55,-56.63,-0.214,-0.307,-0.868
-0.987,-0.101,-0.028,-64.33,44.03,-52.08,-0.215,-0.309,-0.875
-0.965,-0.101,-0.073,-101.01,45.99,-46.13,-0.211,-0.313,-0.87
-0.972,-0.045,-0.046,-137.97,41.58,-40.39,-0.207,-0.314,-0.876
-1.004,0.076,0.001,-165.41,33.39,-31.36,-0.208,-0.311,-0.87
-1.064,0.286,0.031,-173.18,3.57,-17.22,-0.209,-0.31,-0.863
-1.135,0.603,0.056,-114.03,8.26,-6.72,-0.209,-0.305,-0.853
-1.096,0.625,0.023,-35.91,4.69,8.19,-0.21,-0.302,-0.853
-1.059,0.477,-0.034,38.92,-1.47,23.87,-0.212,-0.301,-0.849
-1.102,0.31,-0.035,94.639,-13.58,36.12,-0.211,-0.298,-0.852
-1.188,0.199,0.005,125.79,-23.38,47.88,-0.21,-0.298,-0.859
-1.238,0.127,0.038,138.81,-29.61,62.37,-0.209,-0.298,-0.862
-1.242,0.06,0.034,129.85,-31.92,67.27,-0.209,-0.289,-0.865
-1.234,0.046,0.021,112.35,-34.58,71.19,-0.214,-0.291,-0.865
-1.233,0.064,0.017,93.03,-36.82,74.06,-0.22,-0.28,-0.865
-1.224,0.105,0.033,77.0,-37.73,75.25,-0.214,-0.279,-0.868
-1.199,0.141,0.081,64.82,-38.22,74.97,-0.222,-0.273,-0.864
-1.161,0.16,0.113,53.899,-38.78,71.75,-0.218,-0.265,-0.861
-1.116,0.174,0.136,43.12,-40.18,66.639,-0.219,-0.26,-0.855
-1.077,0.188,0.141,34.02,-40.67,62.02,-0.22,-0.253,-0.853
-1.06,0.21,0.134,28.35,-41.16,58.379,-0.223,-0.247,-0.853
-1.119,0.246,0.134,26.88,-42.21,55.86,-0.224,-0.241,-0.85
-1.173,0.255,0.133,30.45,-38.99,56.419,-0.218,-0.23,-0.84
-1.201,0.247,0.145,35.49,-31.78,57.05,-0.216,-0.227,-0.838
-1.221,0.23,0.153,39.34,-25.2,57.679,-0.214,-0.219,-0.829
-1.241,0.22,0.15,39.76,-20.72,56.98,-0.218,-0.217,-0.826
-1.242,0.214,0.15,36.89,-14.63,52.429,-0.217,-0.214,-0.829
-1.226,0.206,0.139,31.36,-8.82,41.3,-0.223,-0.206,-0.829
-1.207,0.202,0.138,20.02,-7.14,31.5,-0.22,-0.201,-0.829
-1.201,0.193,0.138,12.74,-5.95,20.02,-0.218,-0.199,-0.828
-1.197,0.185,0.13,7.49,-5.11,8.75,-0.217,-0.199,-0.824
-1.192,0.185,0.133,5.74,-4.06,-1.61,-0.223,-0.198,-0.823
-1.182,0.193,0.15,7.63,-2.24,-9.24,-0.22,-0.199,-0.821
-1.154,0.138,0.139,14.56,4.48,-19.25,-0.22,-0.205,-0.815
-1.091,0.111,0.128,18.06,7.84,-23.66,-0.224,-0.209,-0.823
-1.044,0.078,0.125,19.53,10.85,-26.95,-0.22,-0.207,-0.828
-1.007,0.062,0.137,19.46,12.25,-27.44,-0.22,-0.214,-0.828
-0.974,0.055,0.141,17.99,13.09,-27.79,-0.224,-0.219,-0.834
-0.938,0.05,0.134,16.52,13.72,-26.95,-0.225,-0.223,-0.831
-0.905,0.043,0.127,14.98,14.21,-24.78,-0.22,-0.232,-0.834
-0.889,0.037,0.125,12.81,13.09,-21.42,-0.221,-0.231,-0.837
-0.895,0.039,0.116,9.8,11.83,-16.94,-0.22,-0.23,-0.839
-0.909,0.05,0.102,7.07,11.55,-9.17,-0.218,-0.239,-0.839
-0.93,0.057,0.099,5.95,11.13,-3.99,-0.218,-0.239,-0.841
-0.947,0.076,0.093,4.69,11.06,1.05,-0.22,-0.238,-0.845
-0.97,0.087,0.083,3.08,10.15,4.34,-0.221,-0.239,-0.841
-1.004,0.094,0.06,2.1,9.73,6.65,-0.216,-0.238,-0.845
-1.053,0.123,0.039,0.35,8.96,6.79,-0.221,-0.239,-0.85
-1.102,0.149,0.048,-1.47,9.87,3.01,-0.223,-0.238,-0.851
-1.155,0.186,0.071,-2.03,8.68,-2.8,-0.223,-0.239,-0.857
-1.202,0.238,0.116,-4.06,8.54,-10.15,-0.227,-0.241,-0.857
-1.202,0.288,0.14,-1.47,10.64,-34.23,-0.223,-0.239,-0.855
-1.123,0.284,0.17,10.99,11.69,-24.5,-0.219,-0.244,-0.855
-1.074,0.258,0.185,21.14,10.85,-29.54,-0.223,-0.248,-0.864
-1.011,0.226,0.2,29.75,10.99,-33.32,-0.218,-0.257,-0.863
-0.924,0.182,0.184,35.7,13.86,-36.33,-0.22,-0.262,-0.865
-0.857,0.147,0.166,38.43,13.93,-37.17,-0.224,-0.265,-0.874
-0.829,0.114,0.15,37.8,13.93,-35.91,-0.221,-0.273,-0.876
-0.817,0.064,0.142,31.36,15.54,-31.29,-0.22,-0.279,-0.876
-0.789,0.076,0.137,25.62,16.94,-27.65,-0.221,-0.288,-0.884
-0.779,0.062,0.141,19.95,16.31,-22.19,-0.222,-0.289,-0.885
-0.787,0.045,0.139,13.09,15.33,-16.17,-0.224,-0.284,-0.887
-0.799,0.046,0.121,3.36,15.4,-10.64,-0.216,-0.291,-0.892
-0.801,0.054,0.102,-7.84,15.19,-7.07,-0.222,-0.291,-0.893
-0.814,0.09,0.096,-20.02,13.65,-4.55,-0.219,-0.289,-0.892
-0.839,0.147,0.102,-32.27,9.24,0.14,-0.217,-0.295,-0.888
-0.878,0.198,0.117,-33.39,6.02,3.15,-0.219,-0.293,-0.893
-0.896,0.217,0.125,-30.87,2.31,5.74,-0.223,-0.293,-0.891
-0.918,0.231,0.118,-24.99,-1.47,7.63,-0.222,-0.292,-0.887
-0.934,0.239,0.118,-16.66,-4.27,9.66,-0.218,-0.288,-0.887
-0.945,0.232,0.116,-8.26,-7.21,11.9,-0.22,-0.288,-0.88
-0.959,0.214,0.115,-2.17,-9.87,14.07,-0.219,-0.288,-0.88
-0.978,0.206,0.124,0.7,-12.46,15.82,-0.218,-0.281,-0.882
-1.011,0.216,0.137,2.52,-14.56,17.22,-0.218,-0.28,-0.876
-1.035,0.216,0.142,4.13,-15.4,17.85,-0.216,-0.277,-0.875
-1.051,0.209,0.14,5.11,-14.91,18.2,-0.219,-0.274,-0.869
-1.062,0.201,0.138,4.34,-14.35,17.15,-0.22,-0.278,-0.871
-1.074,0.197,0.131,1.68,-13.51,15.26,-0.216,-0.27,-0.869
-1.09,0.2,0.13,-1.68,-12.46,13.16,-0.221,-0.269,-0.874
-1.113,0.208,0.127,-4.83,-11.97,10.5,-0.219,-0.271,-0.869
-1.133,0.211,0.128,-5.74,-11.2,7.21,-0.221,-0.264,-0.87
-1.14,0.215,0.137,-4.34,-9.38,4.76,-0.223,-0.266,-0.875
-1.13,0.203,0.15,-1.05,-8.89,2.17,-0.217,-0.264,-0.869
-1.098,0.185,0.162,0.91,-8.12,-0.35,-0.223,-0.26,-0.868
-1.059,0.176,0.157,1.82,-6.65,-2.59,-0.223,-0.261,-0.867
-1.02,0.169,0.147,2.38,-5.88,-4.62,-0.217,-0.267,-0.867
-1.0,0.155,0.152,3.22,-7.14,-5.67,-0.223,-0.265,-0.866
-0.992,0.159,0.172,4.76,-7.7,-5.95,-0.216,-0.268,-0.863
-0.966,0.163,0.177,9.17,-6.86,-5.67,-0.217,-0.269,-0.862
-0.958,0.155,0.167,14.63,-6.37,-4.62,-0.217,-0.267,-0.863
-0.955,0.132,0.165,20.02,-6.16,-1.96,-0.214,-0.271,-0.863
-0.95,0.119,0.179,22.75,-5.67,2.17,-0.217,-0.271,-0.863
-0.946,0.107,0.181,22.4,-4.97,4.83,-0.218,-0.274,-0.858
-0.94,0.111,0.174,19.11,-4.13,7.42,-0.22,-0.278,-0.864
-0.937,0.104,0.176,14.07,-3.22,8.4,-0.222,-0.277,-0.859
-0.941,0.118,0.187,4.69,-3.15,10.01,-0.214,-0.273,-0.866
-0.951,0.137,0.184,1.12,-2.66,10.15,-0.217,-0.275,-0.865
-0.954,0.146,0.174,-0.07,-1.96,9.94,-0.224,-0.266,-0.86
-0.963,0.145,0.162,-1.33,-1.75,9.38,-0.218,-0.267,-0.86
-0.972,0.149,0.162,-2.17,-1.33,8.05,-0.217,-0.265,-0.856
-0.957,0.156,0.159,-2.17,0.84,6.51,-0.22,-0.265,-0.856
-0.926,0.159,0.154,-1.19,2.73,4.34,-0.224,-0.262,-0.858
-0.9,0.154,0.148,0.63,3.5,2.03,-0.224,-0.263,-0.854
-0.892,0.146,0.143,2.73,3.43,0.56,-0.221,-0.266,-0.859
-0.91,0.143,0.149,4.34,2.17,0.84,-0.222,-0.267,-0.862
-0.941,0.137,0.147,5.11,2.73,2.45,-0.219,-0.269,-0.859
-0.975,0.135,0.144,5.95,3.99,4.97,-0.223,-0.261,-0.868
-0.991,0.129,0.135,5.88,5.53,7.49,-0.223,-0.26,-0.863
-1.009,0.128,0.125,3.29,6.3,9.8,-0.222,-0.261,-0.868
-1.033,0.131,0.127,-1.33,6.86,11.13,-0.219,-0.258,-0.868
-1.051,0.139,0.123,-6.44,8.12,11.83,-0.222,-0.256,-0.863
-1.067,0.145,0.112,-12.04,8.75,12.11,-0.218,-0.254,-0.866
-1.092,0.163,0.108,-15.82,8.26,12.46,-0.219,-0.255,-0.867
-1.123,0.188,0.095,-18.97,8.68,11.13,-0.226,-0.251,-0.87
-1.153,0.198,0.08,-18.76,7.56,10.36,-0.218,-0.251,-0.865
-1.2,0.204,0.071,-16.73,5.32,9.45,-0.226,-0.249,-0.87
-1.255,0.202,0.067,-13.44,3.78,8.47,-0.221,-0.251,-0.868
-1.301,0.197,0.066,-10.15,2.1,7.56,-0.227,-0.245,-0.868
-1.312,0.199,0.07,-6.44,0.91,6.86,-0.228,-0.242,-0.867
-1.293,0.195,0.07,-2.1,-0.49,5.67,-0.226,-0.246,-0.868
-1.26,0.194,0.071,3.36,-3.15,5.18,-0.23,-0.242,-0.864
-1.222,0.181,0.073,10.22,-6.37,3.85,-0.229,-0.244,-0.871
-1.188,0.158,0.067,17.22,-9.59,2.73,-0.228,-0.248,-0.867
-1.184,0.135,0.069,23.31,-15.75,2.38,-0.229,-0.245,-0.867
-1.276,0.109,0.099,29.54,-19.39,4.34,-0.227,-0.244,-0.864
-1.349,0.099,0.123,32.83,-18.69,7.42,-0.225,-0.242,-0.863
-1.349,0.08,0.127,32.97,-12.53,9.03,-0.231,-0.249,-0.864
-1.293,0.057,0.108,28.49,-5.74,8.4,-0.227,-0.246,-0.866
-1.257,0.064,0.108,20.79,-4.06,6.37,-0.225,-0.246,-0.856
-1.257,0.08,0.117,9.94,-1.89,0.07,-0.225,-0.249,-0.863
-1.26,0.134,0.147,8.47,0.42,-5.11,-0.225,-0.248,-0.862
-1.247,0.151,0.171,13.79,3.08,-11.83,-0.224,-0.252,-0.861
-1.214,0.135,0.18,23.52,7.28,-18.83,-0.227,-0.251,-0.867
-1.165,0.095,0.18,33.95,11.83,-24.99,-0.228,-0.259,-0.871
-1.126,0.043,0.179,39.9,16.1,-30.1,-0.222,-0.259,-0.878
-1.095,-0.055,0.167,37.73,24.78,-37.1,-0.221,-0.262,-0.873
-1.064,-0.106,0.157,28.77,32.55,-40.6,-0.221,-0.274,-0.887
-1.023,-0.147,0.14,13.72,41.72,-44.31,-0.224,-0.279,-0.89
-0.988,-0.161,0.14,-4.13,47.32,-46.9,-0.219,-0.284,-0.892
-0.966,-0.14,0.159,-20.86,51.169,-47.95,-0.221,-0.289,-0.904
-0.949,-0.095,0.17,-33.74,54.389,-47.81,-0.22,-0.291,-0.908
-0.928,-0.048,0.168,-40.04,56.98,-47.04,-0.22,-0.299,-0.915
-0.907,0.018,0.157,-38.78,56.77,-43.96,-0.221,-0.299,-0.918
-0.903,0.065,0.154,-32.55,55.58,-41.44,-0.22,-0.302,-0.924
-0.912,0.099,0.152,-23.17,52.29,-37.8,-0.217,-0.306,-0.928
-0.934,0.112,0.154,-12.39,48.649,-32.62,-0.213,-0.309,-0.943
-0.952,0.119,0.152,-2.94,45.99,-27.02,-0.21,-0.315,-0.942
-0.967,0.129,0.16,4.27,40.74,-18.48,-0.216,-0.315,-0.949
-0.993,0.145,0.156,12.39,37.17,-13.23,-0.211,-0.313,-0.954
-1.01,0.139,0.141,15.4,34.44,-8.89,-0.213,-0.32,-0.953
-1.021,0.116,0.108,14.07,32.69,-6.72,-0.208,-0.318,-0.967
-1.033,0.098,0.082,6.44,29.89,-5.46,-0.211,-0.318,-0.964
-1.048,0.094,0.066,-4.97,25.69,-5.25,-0.208,-0.316,-0.967
-1.066,0.11,0.075,-16.94,20.72,-5.18,-0.207,-0.322,-0.974
-1.058,0.141,0.122,-29.4,14.21,-5.18,-0.206,-0.316,-0.977
-0.993,0.139,0.145,-38.36,10.78,-6.58,-0.206,-0.317,-0.965
-0.888,0.126,0.173,-54.74,7.28,-11.62,-0.206,-0.316,-0.967
-0.753,0.113,0.244,-76.09,5.53,-19.6,-0.205,-0.314,-0.965
-0.584,0.117,0.304,-96.53,7.28,-27.37,-0.204,-0.321,-0.961
-0.445,0.146,0.357,-112.21,8.12,-32.76,-0.203,-0.324,-0.953
-0.395,0.203,0.336,-122.29,7.21,-33.6,-0.201,-0.33,-0.947
-0.387,0.263,0.265,-123.62,-0.84,-26.6,-0.201,-0.327,-0.949
-0.476,0.299,0.219,-116.62,-6.58,-17.64,-0.198,-0.328,-0.94
-0.548,0.314,0.155,-108.08,-6.02,-4.9,-0.195,-0.324,-0.937
-0.601,0.377,0.127,-97.3,-5.46,11.41,-0.197,-0.321,-0.931
-0.634,0.481,0.154,-80.36,-5.6,27.3,-0.199,-0.309,-0.922
-0.648,0.571,0.208,-56.49,-3.99,37.03,-0.199,-0.307,-0.914
-0.643,0.612,0.25,-32.9,-3.36,47.74,-0.206,-0.304,-0.912
-0.626,0.623,0.266,-8.96,-3.78,57.05,-0.21,-0.293,-0.916
-0.618,0.551,0.264,9.45,-8.4,55.58,-0.212,-0.292,-0.918
-0.619,0.536,0.265,14.14,-11.34,53.62,-0.208,-0.282,-0.919
-0.61,0.551,0.238,17.5,-12.25,48.649,-0.212,-0.274,-0.918
-0.601,0.562,0.224,22.4,-13.93,43.75,-0.216,-0.272,-0.914
-0.602,0.567,0.226,29.54,-15.33,39.62,-0.215,-0.264,-0.915
-0.607,0.556,0.216,35.7,-15.4,34.65,-0.216,-0.266,-0.915
-0.638,0.524,0.159,38.29,-15.33,30.03,-0.214,-0.258,-0.914
-0.74,0.491,0.071,35.21,-26.46,30.17,-0.212,-0.255,-0.911
-0.933,0.472,0.039,31.57,-40.95,36.4,-0.214,-0.25,-0.915
-1.349,0.506,0.175,30.38,-49.0,45.5,-0.217,-0.247,-0.901
-1.476,0.538,0.302,30.38,-24.64,48.72,-0.217,-0.241,-0.903
-1.22,0.52,0.217,32.34,18.9,46.41,-0.218,-0.236,-0.903
-0.859,0.466,0.104,28.7,25.83,39.34,-0.214,-0.23,-0.91
-0.678,0.409,0.063,21.98,5.25,29.75,-0.214,-0.231,-0.913
-0.738,0.384,0.085,7.91,-28.63,9.73,-0.217,-0.224,-0.912
-0.85,0.376,0.127,0.49,-39.97,-0.77,-0.217,-0.225,-0.911
-0.899,0.395,0.144,-0.98,-39.69,-5.74,-0.214,-0.227,-0.905
-0.88,0.406,0.141,6.51,-38.08,-6.65,-0.214,-0.229,-0.906
-0.864,0.411,0.141,22.96,-42.07,-3.22,-0.212,-0.226,-0.894
-0.875,0.411,0.144,42.84,-46.2,2.45,-0.214,-0.233,-0.886
-0.888,0.394,0.157,62.159,-48.51,7.49,-0.213,-0.231,-0.883
-0.887,0.334,0.193,85.96,-48.93,15.33,-0.214,-0.23,-0.876
-0.879,0.291,0.212,94.429,-49.77,20.58,-0.208,-0.235,-0.874
-0.886,0.227,0.226,95.97,-50.47,24.57,-0.212,-0.236,-0.872
-0.894,0.186,0.239,87.5,-48.65,27.65,-0.205,-0.237,-0.867
-0.895,0.155,0.25,72.03,-45.29,27.86,-0.206,-0.238,-0.867
-0.902,0.158,0.253,53.129,-41.93,29.61,-0.208,-0.234,-0.864
-0.964,0.17,0.258,25.76,-38.08,30.24,-0.202,-0.233,-0.854
-1.029,0.172,0.261,9.1,-34.72,30.31,-0.208,-0.227,-0.853
-1.09,0.204,0.253,-3.85,-26.81,31.92,-0.203,-0.223,-0.855
-1.13,0.209,0.233,-15.61,-17.15,26.81,-0.203,-0.22,-0.852
-1.151,0.232,0.209,-26.46,-8.26,22.96,-0.2,-0.222,-0.846
-1.15,0.255,0.189,-34.65,-1.33,17.01,-0.207,-0.218,-0.846
-1.131,0.258,0.169,-40.32,5.11,8.54,-0.203,-0.211,-0.839
-1.098,0.263,0.163,-45.5,10.08,-4.62,-0.203,-0.208,-0.843
-1.044,0.284,0.158,-45.64,11.27,-14.07,-0.205,-0.209,-0.844
-1.015,0.296,0.15,-42.56,10.71,-23.87,-0.204,-0.207,-0.845
-1.005,0.298,0.135,-36.26,8.96,-32.34,-0.207,-0.21,-0.847
-1.025,0.3,0.122,-28.0,5.95,-38.5,-0.207,-0.221,-0.841
-1.073,0.292,0.116,-16.87,2.66,-41.86,-0.206,-0.222,-0.846
-1.123,0.283,0.122,2.45,2.73,-41.58,-0.204,-0.224,-0.846
-1.154,0.265,0.138,16.45,5.67,-39.41,-0.198,-0.236,-0.85
-1.126,0.244,0.15,28.63,8.89,-36.75,-0.201,-0.241,-0.852
-1.063,0.206,0.154,36.33,12.32,-35.21,-0.2,-0.25,-0.856
-0.989,0.181,0.155,38.71,12.95,-34.86,-0.2,-0.259,-0.855
-0.932,0.168,0.154,37.59,10.36,-34.51,-0.199,-0.254,-0.857
-0.911,0.157,0.158,35.07,6.58,-34.09,-0.204,-0.264,-0.858
-0.92,0.157,0.157,31.92,3.01,-33.81,-0.197,-0.267,-0.859
-0.965,0.163,0.157,29.33,2.8,-32.06,-0.197,-0.279,-0.861
-0.997,0.169,0.16,30.1,4.55,-29.05,-0.198,-0.279,-0.861
-1.013,0.163,0.143,31.57,8.75,-25.41,-0.196,-0.283,-0.863
-1.027,0.146,0.13,33.18,12.6,-21.35,-0.196,-0.291,-0.87
-1.027,0.122,0.134,32.55,16.1,-16.87,-0.196,-0.292,-0.87
-1.002,0.1,0.133,26.95,20.51,-13.86,-0.198,-0.295,-0.88
-0.963,0.099,0.125,10.99,23.17,-12.11,-0.189,-0.296,-0.877
-0.928,0.11,0.106,0.56,21.35,-11.55,-0.195,-0.298,-0.885
-0.929,0.126,0.106,-7.28,18.97,-10.22,-0.191,-0.297,-0.884
-0.93,0.15,0.102,-12.53,17.71,-8.19,-0.195,-0.301,-0.885
-0.927,0.173,0.096,-13.79,16.24,-5.95,-0.196,-0.298,-0.89
-0.923,0.187,0.093,-11.27,14.0,-3.5,-0.195,-0.301,-0.886
-0.918,0.195,0.09,-7.0,11.48,0.91,-0.199,-0.305,-0.89
-0.918,0.196,0.087,-2.1,8.54,5.81,-0.2,-0.302,-0.889
-0.926,0.194,0.089,2.8,5.18,10.71,-0.199,-0.299,-0.888
-0.933,0.179,0.09,7.28,1.61,18.13,-0.199,-0.299,-0.889
-0.931,0.176,0.086,8.12,-0.7,22.82,-0.198,-0.296,-0.888
-0.934,0.187,0.086,8.26,-3.64,27.09,-0.203,-0.292,-0.885
-0.942,0.204,0.097,9.52,-6.58,31.29,-0.202,-0.288,-0.887
-0.952,0.23,0.105,13.02,-9.31,34.72,-0.204,-0.288,-0.886
-0.958,0.244,0.113,19.46,-11.76,37.38,-0.208,-0.28,-0.881
-0.962,0.246,0.119,30.8,-14.28,40.32,-0.208,-0.278,-0.878
-0.966,0.232,0.129,36.75,-15.33,41.16,-0.207,-0.278,-0.883
-0.974,0.219,0.137,39.34,-16.66,40.88,-0.206,-0.267,-0.886
-0.982,0.204,0.146,38.99,-17.36,39.69,-0.208,-0.268,-0.884
-0.989,0.192,0.154,34.86,-17.29,37.1,-0.204,-0.258,-0.877
-0.993,0.182,0.16,28.42,-16.45,33.67,-0.206,-0.258,-0.881
-0.997,0.178,0.161,20.23,-15.61,29.82,-0.21,-0.258,-0.88
-1.004,0.175,0.162,11.41,-14.49,25.48,-0.204,-0.253,-0.878
-1.009,0.179,0.167,-1.12,-11.83,19.11,-0.208,-0.246,-0.879
-1.0,0.183,0.156,-8.61,-9.1,14.63,-0.212,-0.25,-0.876
-1.001,0.19,0.156,-15.54,-8.26,10.85,-0.208,-0.249,-0.88
-1.0,0.207,0.167,-19.81,-6.93,7.49,-0.209,-0.244,-0.879
-0.986,0.222,0.161,-21.21,-5.18,4.62,-0.209,-0.242,-0.874
-0.982,0.232,0.161,-19.53,-5.39,3.29,-0.208,-0.238,-0.878
-0.989,0.236,0.164,-15.68,-5.88,2.52,-0.208,-0.237,-0.878
-0.994,0.236,0.164,-7.84,-5.46,2.52,-0.209,-0.239,-0.868
-0.989,0.239,0.157,-2.1,-5.04,3.08,-0.21,-0.24,-0.869
