ax,ay,az,gx,gy,gz,mx,my,mz
-0.971,0.186,0.178,0.07,-2.52,0.56,-0.177,-0.353,-0.937
-0.986,0.188,0.188,2.38,-2.73,0.14,-0.177,-0.355,-0.937
-0.979,0.18,0.194,4.48,-1.68,0.14,-0.176,-0.353,-0.931
-0.97,0.178,0.195,5.6,-1.33,0.28,-0.175,-0.352,-0.932
-0.971,0.173,0.196,6.23,-1.61,0.42,-0.181,-0.348,-0.932
-0.975,0.164,0.196,6.23,-1.33,0.56,-0.176,-0.353,-0.931
-0.976,0.158,0.195,4.55,-0.49,-0.14,-0.179,-0.354,-0.936
-0.983,0.165,0.19,1.12,-0.14,-0.42,-0.17,-0.353,-0.941
-0.991,0.17,0.188,0.0,0.14,-0.35,-0.175,-0.354,-0.939
-0.99,0.179,0.188,-0.7,0.7,-0.28,-0.175,-0.354,-0.934
-0.983,0.187,0.185,-0.07,0.91,-0.21,-0.177,-0.353,-0.938
-0.973,0.187,0.182,1.4,0.84,-0.42,-0.178,-0.349,-0.937
-0.966,0.18,0.178,2.73,0.63,-0.77,-0.18,-0.354,-0.938
-0.962,0.177,0.177,3.22,0.0,-1.47,-0.18,-0.357,-0.939
-0.971,0.176,0.178,4.27,-1.12,-1.4,-0.181,-0.355,-0.936
-0.979,0.173,0.182,5.11,-1.26,-0.98,-0.179,-0.351,-0.938
-0.985,0.168,0.184,5.32,-1.4,-0.49,-0.18,-0.353,-0.946
-0.988,0.163,0.187,4.97,-1.26,-0.21,-0.177,-0.357,-0.941
-0.986,0.16,0.189,3.43,-1.05,-0.28,-0.174,-0.354,-0.936
-0.981,0.16,0.184,1.26,-1.05,-0.84,-0.178,-0.354,-0.937
-0.978,0.165,0.182,-0.7,-0.91,-1.68,-0.175,-0.357,-0.942
-0.977,0.172,0.177,-1.47,-1.19,-2.73,-0.18,-0.357,-0.934
-0.982,0.176,0.183,-1.26,-1.89,-3.01,-0.177,-0.357,-0.945
-0.982,0.17,0.18,1.12,-1.96,-3.08,-0.175,-0.36,-0.941
-0.981,0.157,0.17,2.24,-2.59,-3.01,-0.176,-0.355,-0.947
-0.979,0.146,0.18,2.45,-3.64,-3.15,-0.18,-0.358,-0.949
-0.953,0.145,0.179,1.96,-3.78,-3.5,-0.175,-0.357,-0.942
-0.924,0.147,0.172,1.82,-4.9,-3.85,-0.178,-0.356,-0.942
-0.912,0.143,0.172,2.24,-7.42,-4.13,-0.177,-0.361,-0.939
-0.905,0.135,0.168,2.66,-8.19,-4.41,-0.178,-0.358,-0.939
-0.882,0.118,0.164,1.26,-8.82,-4.83,-0.175,-0.363,-0.94
-0.865,0.113,0.162,-1.05,-9.59,-4.97,-0.171,-0.362,-0.94
-0.856,0.108,0.16,-4.13,-10.71,-5.18,-0.172,-0.36,-0.938
-0.854,0.091,0.187,-7.91,-11.69,-4.9,-0.169,-0.367,-0.935
-0.846,0.051,0.199,-15.47,-10.08,-4.83,-0.169,-0.366,-0.931
-0.813,0.032,0.179,-28.56,-5.88,-4.69,-0.17,-0.362,-0.929
-0.77,0.024,0.156,-43.75,-2.45,-4.41,-0.171,-0.361,-0.927
-0.761,0.053,0.167,-57.33,-1.68,-1.89,-0.172,-0.362,-0.922
-0.804,0.084,0.172,-67.62,-2.17,1.75,-0.171,-0.364,-0.915
-0.871,0.111,0.156,-74.48,-0.98,6.72,-0.171,-0.359,-0.912
-0.93,0.137,0.13,-76.93,2.87,15.96,-0.173,-0.361,-0.913
-0.991,0.161,0.122,-75.39,3.57,22.26,-0.172,-0.351,-0.9
-1.042,0.21,0.106,-72.31,6.86,26.39,-0.171,-0.347,-0.898
-1.017,0.223,0.071,-68.95,10.08,26.74,-0.179,-0.338,-0.899
-0.956,0.231,0.045,-65.8,12.46,24.22,-0.179,-0.333,-0.897
-0.882,0.255,0.017,-63.56,12.81,17.64,-0.178,-0.33,-0.891
-0.819,0.265,0.013,-58.8,11.76,9.24,-0.179,-0.33,-0.886
-0.792,0.255,0.004,-48.93,7.21,2.03,-0.177,-0.325,-0.885
-0.814,0.255,0.004,-32.27,-0.07,-8.12,-0.178,-0.32,-0.881
-0.901,0.256,0.004,-20.02,-2.94,-13.23,-0.179,-0.327,-0.878
-0.952,0.249,0.005,-6.51,-4.41,-15.68,-0.177,-0.33,-0.889
-0.985,0.23,0.012,8.12,-4.69,-14.91,-0.183,-0.33,-0.882
-1.011,0.205,0.029,21.07,-4.48,-13.44,-0.178,-0.329,-0.884
-1.009,0.164,0.035,28.14,-2.94,-12.32,-0.181,-0.334,-0.879
-0.925,0.124,0.011,27.37,0.84,-11.69,-0.177,-0.336,-0.88
-0.868,0.107,0.001,20.02,-1.26,-11.34,-0.177,-0.337,-0.89
-0.855,0.105,0.02,9.73,-5.81,-10.29,-0.177,-0.339,-0.891
-0.865,0.122,0.04,-1.47,-10.43,-8.89,-0.175,-0.337,-0.891
-0.887,0.16,0.062,-8.12,-14.63,-5.53,-0.175,-0.341,-0.883
-0.904,0.185,0.076,-8.89,-18.2,-0.63,-0.175,-0.34,-0.882
-0.91,0.206,0.082,-6.44,-19.74,6.93,-0.17,-0.341,-0.878
-0.919,0.221,0.09,1.19,-22.96,19.39,-0.175,-0.337,-0.875
-0.925,0.228,0.109,6.09,-23.38,25.83,-0.178,-0.333,-0.872
-0.91,0.22,0.111,8.89,-23.31,29.19,-0.176,-0.327,-0.875
-0.907,0.223,0.101,7.14,-23.8,30.31,-0.174,-0.325,-0.866
-0.927,0.234,0.102,3.78,-25.06,30.31,-0.182,-0.324,-0.864
-0.958,0.239,0.118,2.38,-25.06,29.68,-0.182,-0.318,-0.864
-0.988,0.247,0.122,1.68,-22.26,27.51,-0.183,-0.318,-0.862
-1.028,0.252,0.111,2.94,-20.02,25.97,-0.182,-0.317,-0.861
-1.058,0.254,0.106,6.09,-17.43,24.5,-0.181,-0.314,-0.862
-1.088,0.248,0.101,10.92,-14.49,22.68,-0.184,-0.314,-0.86
-1.14,0.237,0.075,14.84,-12.11,20.09,-0.179,-0.311,-0.857
-1.23,0.218,0.05,16.8,-11.48,16.8,-0.178,-0.308,-0.853
-1.319,0.195,0.032,16.8,-8.47,12.04,-0.181,-0.304,-0.854
-1.347,0.175,0.023,12.74,1.26,-0.63,-0.178,-0.304,-0.856
-1.296,0.147,0.002,9.45,6.3,-8.54,-0.182,-0.306,-0.859
-1.236,0.126,-0.01,6.44,6.02,-16.1,-0.184,-0.309,-0.859
-1.197,0.115,0.015,4.97,4.06,-21.49,-0.182,-0.314,-0.86
-1.15,0.105,0.015,4.34,5.04,-24.5,-0.183,-0.316,-0.859
-1.092,0.086,0.007,4.97,3.99,-24.57,-0.183,-0.321,-0.866
-1.069,0.072,0.018,6.02,0.0,-19.39,-0.182,-0.318,-0.862
-1.088,0.074,0.031,8.4,-4.2,-10.08,-0.182,-0.321,-0.863
-1.125,0.096,0.043,13.16,-7.42,6.72,-0.183,-0.319,-0.866
-1.16,0.14,0.048,15.82,-7.14,17.57,-0.18,-0.32,-0.865
-1.143,0.139,0.033,19.53,-6.16,26.74,-0.18,-0.319,-0.868
-1.117,0.15,0.01,19.74,-6.58,32.41,-0.185,-0.316,-0.865
-1.124,0.175,0.008,16.1,-8.33,32.2,-0.183,-0.31,-0.869
-1.169,0.183,0.012,11.55,-11.27,28.63,-0.185,-0.308,-0.861
-1.214,0.174,0.019,8.4,-10.85,24.01,-0.186,-0.306,-0.861
-1.225,0.159,0.018,3.57,-6.02,12.11,-0.186,-0.305,-0.869
-1.165,0.145,0.013,-0.49,-1.4,2.87,-0.183,-0.302,-0.859
-1.101,0.137,0.008,-3.08,2.38,-4.06,-0.189,-0.305,-0.854
-1.051,0.132,0.007,-4.06,4.9,-7.7,-0.19,-0.304,-0.855
-1.027,0.12,0.01,-3.64,5.18,-10.15,-0.185,-0.305,-0.858
-1.025,0.109,0.011,-1.4,4.76,-10.64,-0.185,-0.304,-0.863
-1.021,0.098,0.016,1.61,4.97,-8.82,-0.185,-0.306,-0.862
-0.979,0.084,0.027,6.79,5.04,-6.3,-0.189,-0.311,-0.864
-0.942,0.074,0.024,7.98,4.27,-4.2,-0.185,-0.31,-0.863
-0.915,0.067,0.019,6.37,2.73,-1.12,-0.185,-0.308,-0.867
-0.904,0.067,0.02,3.92,0.63,2.87,-0.185,-0.308,-0.863
-0.902,0.077,0.019,1.4,-1.33,6.23,-0.185,-0.309,-0.859
-0.895,0.097,0.012,0.14,-1.54,9.66,-0.186,-0.308,-0.866
-0.898,0.107,0.004,0.56,-2.8,11.27,-0.188,-0.306,-0.865
-0.923,0.107,0.004,1.47,-3.78,13.3,-0.188,-0.307,-0.864
-0.943,0.114,0.002,1.33,-3.5,13.44,-0.188,-0.305,-0.86
-0.952,0.112,-0.008,1.12,-3.01,12.81,-0.186,-0.303,-0.865
-0.974,0.1,-0.013,0.49,-3.5,12.18,-0.19,-0.304,-0.862
-1.014,0.111,-0.007,-3.71,-3.92,10.78,-0.185,-0.303,-0.861
-1.027,0.123,-0.003,-5.32,-4.13,9.52,-0.192,-0.302,-0.86
-1.027,0.132,0.004,-5.11,-4.2,8.47,-0.193,-0.299,-0.857
-1.021,0.132,0.004,-3.29,-5.04,6.72,-0.185,-0.3,-0.855
-1.013,0.13,0.0,-1.12,-4.62,4.69,-0.186,-0.298,-0.856
-1.007,0.117,-0.002,0.91,-4.48,2.73,-0.189,-0.296,-0.853
-1.017,0.107,-0.005,1.75,-4.55,1.47,-0.191,-0.289,-0.862
-1.027,0.109,0.0,1.82,-3.92,0.35,-0.192,-0.299,-0.858
-1.026,0.107,0.014,2.94,-3.57,-0.7,-0.193,-0.293,-0.863
-1.007,0.103,0.015,3.64,-3.43,-1.82,-0.188,-0.294,-0.863
-0.998,0.1,0.016,3.78,-4.34,-3.08,-0.186,-0.29,-0.865
-0.989,0.095,0.021,4.13,-4.83,-3.71,-0.187,-0.296,-0.859
-0.98,0.089,0.032,4.2,-4.9,-4.48,-0.183,-0.298,-0.863
-0.982,0.084,0.035,3.92,-5.04,-4.83,-0.184,-0.297,-0.849
-1.003,0.078,0.044,3.85,-5.25,-4.83,-0.186,-0.3,-0.851
-1.016,0.073,0.056,2.94,-2.52,-4.48,-0.184,-0.301,-0.853
-1.011,0.069,0.048,1.33,-0.84,-4.34,-0.187,-0.299,-0.852
-1.021,0.07,0.036,-0.28,0.0,-3.78,-0.184,-0.3,-0.852
-1.027,0.071,0.029,-2.52,1.89,-3.92,-0.184,-0.3,-0.854
-1.023,0.081,0.02,-4.62,2.8,-4.27,-0.186,-0.295,-0.852
-1.028,0.096,0.016,-4.76,1.96,-4.48,-0.183,-0.302,-0.852
-1.035,0.105,0.018,-3.15,1.19,-4.13,-0.182,-0.303,-0.854
-1.024,0.103,0.022,-0.35,0.77,-3.71,-0.186,-0.303,-0.858
-1.014,0.092,0.021,1.96,-0.28,-2.94,-0.184,-0.303,-0.855
-1.016,0.09,0.025,2.94,-2.1,-1.89,-0.181,-0.302,-0.854
-1.017,0.095,0.022,3.15,-1.96,-1.4,-0.187,-0.305,-0.855
-0.998,0.1,0.021,4.27,-1.54,-0.91,-0.182,-0.309,-0.856
-0.995,0.106,0.028,5.74,-1.82,-1.26,-0.182,-0.306,-0.86
-1.008,0.098,0.03,7.42,-2.24,-1.54,-0.184,-0.306,-0.858
-1.027,0.085,0.027,7.98,-1.89,-1.19,-0.183,-0.304,-0.852
-1.03,0.072,0.019,6.51,-0.14,-1.19,-0.181,-0.308,-0.854
-1.032,0.071,0.018,4.34,0.84,-1.05,-0.182,-0.306,-0.858
-1.043,0.085,0.012,1.96,1.33,-1.12,-0.181,-0.304,-0.858
-1.042,0.094,0.006,1.33,4.62,-1.05,-0.178,-0.305,-0.853
-1.026,0.082,-0.017,3.64,4.55,-0.91,-0.181,-0.306,-0.852
-1.028,0.069,-0.026,2.94,3.85,-2.73,-0.183,-0.308,-0.855
-1.031,0.056,-0.035,1.75,3.15,-3.43,-0.187,-0.306,-0.861
-1.039,0.045,-0.039,-0.49,3.08,-3.22,-0.181,-0.313,-0.856
-1.039,0.044,-0.043,-3.5,2.38,-2.24,-0.184,-0.313,-0.854
-1.012,0.052,-0.031,-7.42,2.59,-0.07,-0.182,-0.31,-0.854
-0.945,0.075,-0.023,-7.42,0.7,2.1,-0.182,-0.307,-0.853
-0.928,0.089,-0.014,-6.09,-3.22,4.13,-0.182,-0.305,-0.856
-0.943,0.099,0.0,-4.41,-7.21,6.16,-0.179,-0.307,-0.857
-0.973,0.099,0.005,-2.87,-10.36,7.49,-0.184,-0.306,-0.856
-0.996,0.097,0.014,-1.89,-12.04,9.31,-0.181,-0.305,-0.851
-1.007,0.104,0.029,-1.47,-13.37,10.99,-0.183,-0.302,-0.852
-1.002,0.12,0.042,-0.91,-12.74,11.97,-0.187,-0.301,-0.849
-0.96,0.135,0.054,1.33,-12.25,11.41,-0.185,-0.299,-0.844
-0.934,0.128,0.045,3.36,-12.04,10.36,-0.183,-0.294,-0.851
-0.949,0.122,0.03,4.83,-12.46,8.47,-0.187,-0.293,-0.848
-0.987,0.117,0.051,2.87,-12.25,6.23,-0.182,-0.293,-0.847
-1.011,0.113,0.061,0.35,-9.73,4.34,-0.18,-0.298,-0.842
-1.003,0.125,0.062,-3.29,-6.02,2.52,-0.184,-0.291,-0.847
-0.962,0.141,0.05,-5.88,-2.03,1.19,-0.184,-0.289,-0.843
-0.929,0.141,0.037,-6.65,-0.63,0.28,-0.184,-0.293,-0.847
-0.925,0.143,0.025,-8.05,-0.49,-0.98,-0.188,-0.293,-0.847
-0.942,0.138,0.019,-8.68,-0.49,-3.29,-0.187,-0.293,-0.84
-0.973,0.123,0.004,-10.08,0.07,-4.2,-0.183,-0.295,-0.843
-1.005,0.125,0.001,-11.9,-0.77,-4.48,-0.181,-0.291,-0.837
-1.035,0.131,-0.004,-13.86,-0.28,-4.13,-0.177,-0.294,-0.845
-1.043,0.137,-0.021,-14.7,1.19,-3.99,-0.185,-0.29,-0.835
-1.046,0.142,-0.036,-13.93,0.56,-4.13,-0.185,-0.291,-0.839
-1.069,0.142,-0.045,-13.65,-0.98,-4.83,-0.182,-0.295,-0.843
-1.141,0.149,-0.041,-11.97,-3.99,-4.62,-0.181,-0.293,-0.848
-1.176,0.159,-0.041,-10.01,-4.69,-4.48,-0.185,-0.293,-0.844
-1.19,0.159,-0.041,-6.72,-4.83,-4.13,-0.184,-0.291,-0.844
-1.193,0.162,-0.035,-2.52,-5.46,-3.85,-0.186,-0.292,-0.841
-1.18,0.16,-0.035,1.33,-5.32,-4.34,-0.179,-0.291,-0.838
-1.166,0.15,-0.038,4.62,-5.67,-4.83,-0.18,-0.296,-0.836
-1.171,0.133,-0.04,5.67,-7.07,-5.18,-0.181,-0.292,-0.834
-1.207,0.137,-0.024,4.9,-7.14,-5.11,-0.18,-0.296,-0.835
-1.21,0.143,-0.013,5.39,-5.81,-4.9,-0.178,-0.298,-0.832
-1.19,0.149,-0.008,6.93,-4.34,-4.55,-0.173,-0.298,-0.832
-1.174,0.152,-0.013,8.61,-3.92,-4.13,-0.177,-0.297,-0.83
-1.175,0.157,-0.009,10.22,-4.55,-3.71,-0.182,-0.297,-0.829
-1.184,0.165,0.0,13.51,-4.06,-3.15,-0.178,-0.302,-0.822
-1.185,0.167,0.008,16.31,-3.78,-2.8,-0.176,-0.3,-0.827
-1.171,0.171,0.02,19.18,-2.66,-2.87,-0.178,-0.308,-0.83
-1.142,0.174,0.015,21.77,-1.47,-3.78,-0.177,-0.305,-0.834
-1.137,0.167,0.009,23.73,-0.91,-4.55,-0.176,-0.306,-0.835
-1.146,0.163,0.012,24.36,-0.56,-5.18,-0.176,-0.311,-0.844
-1.149,0.165,0.016,24.43,1.61,-7.07,-0.178,-0.314,-0.841
-1.145,0.166,0.022,26.11,4.48,-7.63,-0.175,-0.319,-0.842
-1.124,0.174,0.031,27.86,6.44,-8.33,-0.177,-0.318,-0.848
-1.091,0.174,0.024,29.96,9.17,-9.17,-0.179,-0.32,-0.851
-1.063,0.17,0.021,32.06,10.15,-9.8,-0.175,-0.319,-0.852
-1.045,0.167,0.028,33.6,11.34,-10.99,-0.177,-0.325,-0.852
-1.022,0.163,0.03,34.16,12.6,-12.25,-0.176,-0.329,-0.86
-1.006,0.166,0.031,34.65,14.28,-13.65,-0.176,-0.328,-0.866
-1.003,0.161,0.032,35.21,16.1,-14.28,-0.179,-0.341,-0.874
-1.005,0.161,0.041,35.42,17.64,-14.28,-0.175,-0.341,-0.87
-0.992,0.165,0.046,35.14,21.07,-14.49,-0.176,-0.342,-0.879
-0.965,0.166,0.04,35.0,23.94,-15.05,-0.175,-0.344,-0.878
-0.949,0.169,0.039,34.23,25.13,-15.75,-0.174,-0.35,-0.884
-0.945,0.176,0.045,33.53,26.46,-16.66,-0.174,-0.357,-0.885
-0.94,0.186,0.05,33.6,28.84,-17.85,-0.173,-0.361,-0.891
-0.939,0.184,0.059,33.74,30.24,-18.48,-0.171,-0.364,-0.903
-0.93,0.177,0.066,33.25,32.06,-19.39,-0.172,-0.368,-0.905
-0.915,0.17,0.073,31.01,33.95,-20.72,-0.174,-0.366,-0.914
-0.898,0.165,0.079,27.58,36.12,-22.47,-0.166,-0.369,-0.918
-0.882,0.157,0.085,23.52,38.15,-23.87,-0.172,-0.374,-0.92
-0.869,0.156,0.089,18.97,39.41,-24.92,-0.17,-0.379,-0.93
-0.872,0.154,0.106,12.25,40.46,-24.64,-0.165,-0.382,-0.937
-0.876,0.153,0.122,8.05,41.86,-23.66,-0.163,-0.384,-0.939
-0.861,0.153,0.126,3.99,43.82,-22.54,-0.167,-0.391,-0.945
-0.837,0.154,0.127,0.42,45.22,-21.14,-0.159,-0.39,-0.948
-0.825,0.164,0.129,-2.87,45.22,-19.53,-0.163,-0.391,-0.959
-0.827,0.174,0.126,-6.23,44.03,-17.08,-0.164,-0.394,-0.96
-0.829,0.177,0.139,-7.35,44.03,-15.47,-0.158,-0.398,-0.966
-0.814,0.18,0.136,-8.96,44.66,-15.19,-0.157,-0.398,-0.969
-0.801,0.182,0.131,-10.85,43.54,-15.12,-0.156,-0.399,-0.97
-0.808,0.187,0.124,-12.46,41.58,-14.91,-0.156,-0.4,-0.977
-0.818,0.187,0.123,-13.09,40.18,-14.49,-0.154,-0.399,-0.98
-0.806,0.185,0.116,-12.88,40.18,-13.58,-0.153,-0.403,-0.985
-0.78,0.189,0.109,-11.83,37.45,-11.2,-0.149,-0.405,-0.988
-0.754,0.189,0.107,-8.54,34.51,-7.84,-0.145,-0.406,-0.987
-0.728,0.193,0.102,-5.39,30.73,-4.13,-0.146,-0.402,-0.985
-0.726,0.187,0.101,-2.1,26.04,0.56,-0.151,-0.407,-0.993
-0.732,0.183,0.101,-0.63,21.49,5.53,-0.149,-0.406,-0.994
-0.748,0.179,0.076,-1.26,17.71,9.94,-0.151,-0.404,-0.995
-0.815,0.175,0.045,-4.2,10.22,15.05,-0.154,-0.404,-1.002
-0.948,0.181,0.041,-9.17,0.35,21.49,-0.152,-0.399,-0.998
-1.121,0.184,0.077,-19.53,-9.66,32.2,-0.157,-0.4,-0.994
-1.294,0.198,0.092,-27.86,-12.11,37.73,-0.157,-0.391,-0.988
-1.259,0.218,0.122,-35.98,-13.02,40.6,-0.159,-0.389,-0.989
-1.102,0.24,0.162,-41.02,-15.26,40.53,-0.165,-0.387,-0.986
-0.909,0.26,0.218,-42.28,-20.65,37.1,-0.168,-0.381,-0.975
-0.734,0.281,0.264,-39.27,-26.81,30.59,-0.173,-0.372,-0.973
-0.619,0.293,0.274,-31.43,-39.13,20.86,-0.172,-0.376,-0.967
-0.613,0.327,0.286,-9.8,-47.04,16.73,-0.17,-0.373,-0.962
-0.669,0.338,0.27,11.34,-52.29,13.3,-0.169,-0.366,-0.963
-0.753,0.32,0.249,38.85,-57.19,13.23,-0.172,-0.367,-0.96
-0.865,0.283,0.218,65.52,-62.37,16.45,-0.173,-0.367,-0.948
-1.001,0.21,0.234,87.919,-67.48,21.28,-0.171,-0.367,-0.958
-1.152,0.147,0.289,100.94,-67.41,31.01,-0.174,-0.364,-0.947
-1.249,0.096,0.354,103.67,-47.74,36.61,-0.176,-0.363,-0.954
-1.213,0.05,0.361,86.87,-35.28,39.34,-0.179,-0.355,-0.951
-1.074,-0.004,0.363,61.81,-33.53,40.46,-0.18,-0.354,-0.951
-1.025,-0.004,0.38,30.66,-34.79,40.6,-0.215,-0.345,-0.946
-0.999,0.025,0.385,-2.73,-32.9,37.03,-0.183,-0.342,-0.944
-0.988,0.095,0.368,-31.78,-29.05,29.96,-0.181,-0.34,-0.948
-0.98,0.173,0.346,-46.76,-23.59,22.12,-0.185,-0.336,-0.935
-0.965,0.199,0.325,-47.88,-16.17,13.37,-0.186,-0.336,-0.929
-0.943,0.209,0.285,-36.47,-7.28,9.45,-0.186,-0.336,-0.925
-0.951,0.206,0.272,-27.09,-3.99,5.53,-0.187,-0.331,-0.926
-0.982,0.188,0.265,-19.11,-1.26,3.29,-0.187,-0.334,-0.925
-1.022,0.149,0.264,-15.26,2.59,1.96,-0.186,-0.329,-0.924
-1.064,0.103,0.26,-18.69,7.84,1.12,-0.184,-0.33,-0.919
-1.086,0.082,0.247,-36.82,17.22,-0.77,-0.188,-0.334,-0.919
-1.081,0.101,0.194,-50.54,21.84,-2.38,-0.19,-0.327,-0.918
-1.034,0.152,0.192,-60.62,24.08,-3.99,-0.187,-0.329,-0.92
-0.997,0.17,0.181,-67.27,23.8,-5.81,-0.189,-0.33,-0.916
-0.96,0.193,0.169,-71.19,22.26,-8.12,-0.184,-0.329,-0.917
-0.931,0.223,0.163,-69.86,18.69,-10.71,-0.191,-0.33,-0.914
-0.918,0.252,0.155,-62.16,14.98,-11.9,-0.191,-0.327,-0.912
-0.921,0.272,0.148,-39.9,9.03,-10.85,-0.189,-0.326,-0.914
-0.934,0.283,0.148,-21.07,6.23,-8.89,-0.192,-0.33,-0.915
-0.938,0.278,0.145,-1.75,4.13,-5.88,-0.183,-0.328,-0.915
-0.946,0.265,0.147,16.38,1.47,-3.15,-0.187,-0.329,-0.917
-0.967,0.222,0.151,30.03,-0.84,-0.21,-0.187,-0.331,-0.911
-0.996,0.187,0.162,36.4,-3.22,2.38,-0.187,-0.329,-0.916
-1.014,0.177,0.162,36.19,-3.43,2.59,-0.189,-0.326,-0.918
-1.022,0.161,0.163,30.03,-3.15,1.54,-0.184,-0.331,-0.92
-1.025,0.16,0.166,23.1,-3.01,-0.7,-0.187,-0.331,-0.926
-1.028,0.164,0.171,15.26,-2.17,-3.71,-0.185,-0.33,-0.921
-1.022,0.175,0.175,8.68,-1.05,-6.16,-0.184,-0.335,-0.922
-1.011,0.187,0.162,4.76,1.05,-9.59,-0.185,-0.331,-0.925
-1.01,0.193,0.155,3.99,1.61,-12.74,-0.182,-0.334,-0.922
-1.005,0.193,0.165,5.04,3.08,-15.19,-0.18,-0.34,-0.921
-0.983,0.19,0.163,7.77,5.46,-18.69,-0.185,-0.339,-0.925
-0.968,0.183,0.16,10.22,4.48,-19.67,-0.182,-0.339,-0.925
-0.978,0.178,0.162,12.25,3.01,-20.58,-0.182,-0.339,-0.923
-0.983,0.17,0.166,14.49,2.52,-20.37,-0.183,-0.344,-0.925
-0.981,0.166,0.164,16.1,2.17,-19.53,-0.184,-0.351,-0.937
-0.987,0.165,0.165,17.36,0.63,-18.2,-0.181,-0.353,-0.939
-0.991,0.162,0.162,19.04,0.49,-16.03,-0.182,-0.352,-0.938
-0.982,0.155,0.159,20.16,1.12,-13.86,-0.179,-0.354,-0.939
-0.97,0.149,0.158,20.02,0.77,-11.83,-0.175,-0.357,-0.94
-0.965,0.147,0.16,18.97,0.28,-9.73,-0.177,-0.357,-0.934
-0.971,0.143,0.167,16.73,-1.54,-6.37,-0.175,-0.359,-0.934
-0.975,0.145,0.168,15.12,-1.89,-4.76,-0.175,-0.361,-0.938
-0.97,0.148,0.166,13.44,-2.03,-3.22,-0.171,-0.361,-0.941
-0.968,0.151,0.168,12.53,-2.24,-1.54,-0.173,-0.36,-0.937
-0.971,0.153,0.17,11.41,-2.66,-0.49,-0.172,-0.363,-0.942
-0.974,0.154,0.172,10.08,-2.87,1.12,-0.175,-0.368,-0.943
-0.976,0.159,0.174,8.33,-2.87,2.03,-0.169,-0.365,-0.944
-0.977,0.161,0.175,7.91,-2.87,3.01,-0.176,-0.361,-0.946
-0.982,0.163,0.177,7.7,-2.87,3.99,-0.173,-0.362,-0.943
-0.981,0.161,0.177,7.28,-2.52,4.9,-0.177,-0.364,-0.948
-0.981,0.16,0.177,6.65,-2.73,5.74,-0.175,-0.364,-0.948
-0.98,0.161,0.178,5.88,-2.66,6.37,-0.177,-0.365,-0.947
-0.981,0.163,0.178,4.62,-2.45,6.93,-0.178,-0.356,-0.95
-0.98,0.166,0.178,3.71,-2.1,7.28,-0.178,-0.358,-0.948
-0.977,0.167,0.177,2.8,-2.24,7.7,-0.179,-0.358,-0.944
-0.977,0.17,0.183,2.66,-2.38,8.33,-0.18,-0.359,-0.939
-0.973,0.17,0.175,1.96,-1.82,8.4,-0.18,-0.358,-0.945
-0.975,0.17,0.168,0.98,-1.96,8.33,-0.179,-0.357,-0.95
-0.979,0.171,0.179,0.42,-2.24,8.54,-0.183,-0.358,-0.949
-0.966,0.179,0.177,-0.21,-1.4,8.26,-0.181,-0.354,-0.95
-0.959,0.184,0.172,-0.07,-1.82,7.84,-0.185,-0.352,-0.945
-0.97,0.185,0.173,0.98,-2.87,7.84,-0.183,-0.353,-0.949
-0.98,0.183,0.178,1.75,-2.66,7.77,-0.182,-0.346,-0.95
-0.974,0.177,0.177,1.61,-1.75,7.91,-0.181,-0.349,-0.949
-0.973,0.178,0.174,1.12,-1.89,7.84,-0.182,-0.353,-0.944
-0.981,0.179,0.175,0.49,-2.17,7.7,-0.183,-0.351,-0.945
-0.984,0.179,0.173,-0.42,-1.89,7.21,-0.18,-0.347,-0.945
-0.984,0.181,0.172,-1.75,-1.68,6.16,-0.186,-0.345,-0.95
-0.983,0.185,0.169,-3.08,-1.54,5.39,-0.182,-0.348,-0.946
-0.984,0.193,0.169,-3.71,-1.68,3.85,-0.186,-0.346,-0.95
-0.979,0.197,0.167,-3.43,-1.4,2.66,-0.184,-0.347,-0.948
-0.975,0.199,0.167,-2.31,-1.47,1.47,-0.185,-0.345,-0.952
-0.977,0.195,0.169,-1.12,-2.17,0.0,-0.183,-0.343,-0.938
-0.982,0.191,0.174,0.14,-2.24,-0.98,-0.181,-0.346,-0.949
-0.981,0.184,0.177,0.91,-2.17,-1.89,-0.183,-0.346,-0.945
-0.978,0.176,0.178,1.12,-2.17,-2.38,-0.179,-0.345,-0.941
-0.978,0.173,0.179,0.98,-1.89,-2.66,-0.182,-0.345,-0.944
-0.978,0.17,0.181,0.42,-1.96,-2.66,-0.183,-0.348,-0.94
-0.974,0.168,0.181,0.0,-1.61,-2.94,-0.185,-0.346,-0.941
-0.973,0.166,0.181,-0.84,-1.4,-3.29,-0.18,-0.35,-0.94
-0.971,0.169,0.18,-1.61,-1.33,-3.36,-0.179,-0.35,-0.944
-0.976,0.171,0.18,-1.4,-1.4,-3.5,-0.18,-0.348,-0.945
-0.981,0.172,0.179,-1.12,-1.33,-3.5,-0.175,-0.349,-0.941
-0.982,0.171,0.178,-0.35,-1.19,-3.5,-0.17,-0.346,-0.941
-0.982,0.168,0.181,0.07,-1.12,-3.57,-0.177,-0.345,-0.937
-0.978,0.166,0.173,0.28,-1.05,-3.36,-0.178,-0.35,-0.936
-0.985,0.165,0.172,0.35,-1.89,-2.87,-0.182,-0.35,-0.945
-0.988,0.164,0.185,0.63,-1.89,-2.38,-0.181,-0.351,-0.939
-0.972,0.169,0.183,1.26,-1.75,-1.96,-0.179,-0.354,-0.941
-0.978,0.165,0.185,2.24,-2.94,-1.54,-0.176,-0.357,-0.939
-0.988,0.163,0.188,2.94,-3.08,-1.05,-0.177,-0.354,-0.945
-0.985,0.157,0.192,2.73,-2.03,-0.49,-0.175,-0.351,-0.942
-0.976,0.159,0.187,2.24,-1.19,-0.28,-0.178,-0.353,-0.946
-0.979,0.162,0.188,1.82,-1.26,-0.07,-0.175,-0.349,-0.945
-0.984,0.163,0.185,1.26,-0.7,0.21,-0.182,-0.353,-0.943
-0.984,0.161,0.185,0.77,-0.56,0.14,-0.18,-0.349,-0.938
-0.986,0.164,0.182,-0.14,-0.77,0.28,-0.174,-0.35,-0.945
