ax,ay,az,gx,gy,gz,mx,my,mz
-0.974,0.177,0.162,2.59,-2.24,-0.91,-0.179,-0.35,-0.932
-0.971,0.173,0.164,2.52,-2.94,-0.49,-0.18,-0.354,-0.938
-0.968,0.173,0.166,2.17,-3.29,-0.21,-0.174,-0.351,-0.934
-0.969,0.174,0.167,2.03,-3.64,-0.21,-0.18,-0.349,-0.937
-0.971,0.173,0.17,1.89,-3.85,0.21,-0.173,-0.348,-0.933
-0.974,0.172,0.171,1.61,-3.78,0.07,-0.18,-0.349,-0.931
-0.975,0.171,0.172,1.12,-4.13,0.07,-0.176,-0.35,-0.938
-0.976,0.172,0.174,0.77,-4.06,0.14,-0.176,-0.355,-0.934
-0.977,0.176,0.176,0.91,-4.76,-0.14,-0.175,-0.353,-0.93
-0.977,0.176,0.18,1.47,-4.97,0.14,-0.182,-0.35,-0.93
-0.977,0.175,0.182,2.52,-5.11,0.14,-0.182,-0.348,-0.925
-0.98,0.173,0.176,3.01,-5.25,0.21,-0.177,-0.35,-0.929
-0.989,0.17,0.185,3.71,-5.95,0.28,-0.18,-0.351,-0.935
-0.985,0.171,0.197,4.55,-5.04,0.49,-0.177,-0.35,-0.927
-0.979,0.169,0.195,5.6,-5.18,0.56,-0.18,-0.351,-0.932
-0.987,0.165,0.198,6.23,-5.6,0.56,-0.179,-0.35,-0.926
-0.993,0.162,0.202,6.79,-5.04,0.14,-0.183,-0.35,-0.925
-0.988,0.156,0.202,6.65,-3.78,0.21,-0.183,-0.35,-0.927
-0.984,0.156,0.203,5.67,-3.29,-0.07,-0.178,-0.352,-0.921
-0.989,0.156,0.203,5.53,-3.08,-0.21,-0.179,-0.356,-0.928
-0.991,0.152,0.198,5.32,-2.73,-0.56,-0.174,-0.35,-0.924
-1.0,0.149,0.195,4.76,-3.08,-1.12,-0.175,-0.349,-0.929
-1.01,0.149,0.194,4.13,-3.36,-1.54,-0.176,-0.354,-0.924
-1.012,0.149,0.196,3.92,-3.36,-1.82,-0.177,-0.354,-0.924
-1.004,0.15,0.195,4.27,-3.43,-1.96,-0.173,-0.354,-0.929
-0.987,0.146,0.193,5.39,-4.2,-2.45,-0.18,-0.353,-0.925
-0.949,0.146,0.186,6.51,-5.18,-2.66,-0.177,-0.361,-0.927
-0.922,0.147,0.18,8.4,-6.37,-3.22,-0.178,-0.358,-0.93
-0.897,0.147,0.176,10.78,-7.77,-3.43,-0.178,-0.356,-0.927
-0.879,0.145,0.173,13.86,-9.31,-3.29,-0.173,-0.355,-0.926
-0.88,0.13,0.166,15.96,-11.2,-3.15,-0.172,-0.351,-0.921
-0.887,0.111,0.168,16.03,-12.32,-2.94,-0.175,-0.356,-0.923
-0.871,0.096,0.16,13.09,-10.64,-3.43,-0.175,-0.355,-0.92
-0.826,0.086,0.15,7.91,-8.54,-4.2,-0.175,-0.355,-0.919
-0.765,0.066,0.125,-2.8,-7.35,-4.55,-0.176,-0.357,-0.917
-0.752,0.07,0.103,-12.04,-8.26,-4.27,-0.173,-0.359,-0.911
-0.778,0.086,0.084,-20.23,-9.8,-2.66,-0.173,-0.354,-0.916
-0.834,0.09,0.064,-25.41,-11.34,0.84,-0.169,-0.357,-0.917
-0.901,0.076,0.04,-29.4,-10.85,6.16,-0.173,-0.356,-0.908
-0.947,0.078,0.032,-34.58,-8.96,14.21,-0.179,-0.354,-0.9
-0.934,0.107,0.021,-40.04,-5.53,21.0,-0.173,-0.352,-0.902
-0.828,0.165,-0.003,-43.12,-3.43,26.32,-0.178,-0.341,-0.901
-0.764,0.198,-0.02,-41.44,-6.44,26.74,-0.179,-0.345,-0.901
-0.747,0.23,-0.015,-37.8,-12.32,25.27,-0.183,-0.341,-0.896
-0.78,0.249,0.011,-32.55,-18.27,21.98,-0.183,-0.334,-0.889
-0.819,0.239,0.028,-24.78,-20.23,18.2,-0.185,-0.333,-0.883
-0.838,0.214,0.025,-16.87,-19.95,13.65,-0.181,-0.323,-0.879
-0.867,0.194,0.041,-10.43,-18.76,11.34,-0.18,-0.323,-0.876
-0.88,0.175,0.057,-8.33,-16.73,10.15,-0.179,-0.323,-0.873
-0.885,0.157,0.06,-8.54,-12.95,9.03,-0.183,-0.322,-0.868
-0.885,0.147,0.066,-11.13,-9.87,6.65,-0.182,-0.324,-0.871
-0.876,0.147,0.056,-14.91,-6.51,4.41,-0.179,-0.322,-0.876
-0.851,0.149,0.036,-18.34,-3.22,2.03,-0.18,-0.322,-0.868
-0.849,0.142,0.02,-20.86,-3.08,0.77,-0.18,-0.32,-0.867
-0.89,0.152,0.012,-22.4,-4.48,2.31,-0.177,-0.316,-0.865
-0.98,0.162,0.015,-19.74,-6.09,6.23,-0.181,-0.316,-0.864
-1.035,0.18,0.03,-15.12,-6.93,11.9,-0.181,-0.313,-0.859
-1.079,0.186,0.037,-9.73,-6.79,16.45,-0.184,-0.309,-0.861
-1.094,0.193,0.021,-5.39,-6.23,20.37,-0.185,-0.309,-0.86
-1.085,0.204,0.015,-1.82,-6.72,21.98,-0.179,-0.305,-0.858
-1.083,0.216,0.012,1.33,-9.31,21.77,-0.179,-0.301,-0.857
-1.102,0.231,0.016,4.76,-13.09,20.23,-0.185,-0.302,-0.851
-1.134,0.23,0.018,8.61,-15.4,17.15,-0.18,-0.302,-0.849
-1.19,0.202,0.035,12.95,-16.52,13.09,-0.186,-0.301,-0.853
-1.208,0.196,0.035,12.95,-14.21,10.36,-0.182,-0.3,-0.851
-1.201,0.192,0.038,13.58,-10.92,8.12,-0.18,-0.295,-0.856
-1.185,0.183,0.05,15.33,-8.75,6.3,-0.184,-0.297,-0.847
-1.172,0.185,0.054,16.24,-6.79,3.78,-0.181,-0.295,-0.848
-1.177,0.176,0.039,16.59,-6.37,0.7,-0.181,-0.295,-0.851
-1.214,0.172,0.031,17.5,-7.07,-2.45,-0.181,-0.299,-0.849
-1.268,0.155,0.019,20.37,-5.25,-4.55,-0.182,-0.298,-0.849
-1.277,0.15,0.015,23.03,-3.22,-6.51,-0.182,-0.3,-0.851
-1.249,0.126,0.003,26.11,-0.07,-10.43,-0.179,-0.302,-0.853
-1.226,0.08,-0.006,26.25,1.75,-15.61,-0.181,-0.303,-0.853
-1.231,0.021,-0.013,21.28,3.36,-18.97,-0.181,-0.306,-0.852
-1.222,-0.006,-0.029,12.74,6.16,-22.12,-0.18,-0.314,-0.855
-1.164,-0.017,-0.053,-8.54,9.66,-20.37,-0.176,-0.322,-0.861
-1.138,0.002,-0.055,-11.69,9.66,-16.24,-0.177,-0.324,-0.859
-1.1,0.025,-0.057,-12.11,8.61,-11.06,-0.174,-0.323,-0.861
-1.078,0.045,-0.058,-7.84,2.52,-1.82,-0.174,-0.324,-0.861
-1.064,0.073,-0.083,-2.17,-0.21,6.09,-0.174,-0.321,-0.861
-0.983,0.145,-0.148,23.73,-12.25,22.33,-0.18,-0.32,-0.862
-0.981,0.15,-0.091,21.35,-20.58,20.23,-0.179,-0.316,-0.861
-0.994,0.157,-0.058,18.27,-28.77,19.11,-0.177,-0.315,-0.857
-1.014,0.184,-0.059,22.54,-35.07,19.11,-0.18,-0.311,-0.854
-1.04,0.185,-0.06,31.29,-37.66,19.88,-0.175,-0.315,-0.85
-1.038,0.132,-0.029,38.71,-37.45,20.79,-0.174,-0.31,-0.846
-1.018,0.131,-0.019,33.74,-34.93,21.28,-0.171,-0.309,-0.848
-1.002,0.143,-0.016,25.62,-31.85,20.58,-0.176,-0.309,-0.846
-0.985,0.147,-0.01,19.81,-28.28,19.81,-0.17,-0.309,-0.843
-0.978,0.143,-0.001,13.93,-25.55,17.99,-0.177,-0.305,-0.838
-0.993,0.148,0.023,7.77,-23.8,15.19,-0.175,-0.305,-0.842
-1.018,0.175,0.044,0.77,-18.62,8.96,-0.175,-0.3,-0.831
-1.0,0.188,0.034,4.34,-16.31,3.99,-0.175,-0.301,-0.829
-0.991,0.204,0.017,9.73,-16.24,0.42,-0.176,-0.305,-0.83
-0.979,0.193,0.009,38.99,-13.86,-9.17,-0.175,-0.311,-0.822
-0.998,0.14,0.023,48.159,-12.11,-14.21,-0.173,-0.319,-0.824
-1.017,0.076,0.013,43.96,-7.63,-17.64,-0.168,-0.322,-0.825
-0.999,0.044,0.001,34.37,-1.12,-20.93,-0.166,-0.322,-0.827
-0.983,0.029,-0.008,21.63,4.13,-22.82,-0.167,-0.327,-0.83
-0.986,0.039,-0.011,8.47,8.33,-23.87,-0.165,-0.33,-0.834
-0.997,0.056,-0.02,-1.54,11.97,-24.08,-0.166,-0.336,-0.836
-1.011,0.063,-0.029,-10.5,17.01,-22.33,-0.169,-0.337,-0.832
-1.033,0.073,-0.036,-16.17,18.69,-20.23,-0.161,-0.339,-0.836
-1.037,0.092,-0.038,-20.23,19.25,-17.85,-0.167,-0.339,-0.838
-1.024,0.116,-0.038,-20.72,19.39,-15.89,-0.165,-0.344,-0.837
-1.006,0.145,-0.035,-17.22,17.71,-13.44,-0.157,-0.342,-0.839
-0.996,0.166,-0.027,-10.22,14.91,-11.9,-0.165,-0.34,-0.847
-0.992,0.169,-0.023,-1.54,12.04,-10.36,-0.162,-0.34,-0.844
-0.989,0.146,-0.025,9.94,9.94,-8.19,-0.162,-0.347,-0.841
-0.996,0.101,-0.024,11.55,9.17,-6.44,-0.162,-0.346,-0.84
-0.988,0.096,-0.024,9.31,10.36,-5.25,-0.165,-0.345,-0.844
-0.965,0.095,-0.037,7.0,11.83,-4.76,-0.165,-0.349,-0.843
-0.953,0.098,-0.032,3.64,12.95,-3.99,-0.161,-0.344,-0.856
-0.958,0.088,-0.045,0.14,14.42,-3.08,-0.163,-0.349,-0.852
-0.962,0.092,-0.064,-6.16,14.91,-1.33,-0.163,-0.351,-0.849
-0.965,0.123,-0.1,-8.89,14.42,0.84,-0.166,-0.351,-0.853
-0.989,0.115,-0.085,-12.11,12.6,3.15,-0.164,-0.352,-0.85
-1.0,0.141,-0.066,-13.44,11.55,5.67,-0.167,-0.353,-0.857
-0.992,0.172,-0.055,-11.62,9.38,7.84,-0.165,-0.345,-0.861
-0.981,0.193,-0.035,-6.44,5.74,8.82,-0.17,-0.345,-0.863
-0.929,0.2,-0.001,11.97,-2.73,6.09,-0.168,-0.344,-0.866
-0.998,0.136,0.032,19.46,-3.08,0.49,-0.166,-0.345,-0.862
-0.983,0.116,0.032,12.74,1.96,1.96,-0.168,-0.347,-0.863
-0.946,0.115,0.028,6.09,5.25,3.08,-0.172,-0.345,-0.865
-0.938,0.126,0.029,-0.77,6.58,3.29,-0.172,-0.346,-0.86
-0.951,0.14,0.025,-6.51,7.14,3.01,-0.173,-0.34,-0.864
-0.976,0.157,0.018,-11.41,7.49,2.38,-0.178,-0.343,-0.868
-0.995,0.173,0.011,-13.16,9.8,1.19,-0.174,-0.342,-0.868
-0.993,0.179,0.0,-11.41,11.55,0.14,-0.172,-0.342,-0.868
-0.99,0.175,-0.012,-9.94,11.55,-1.33,-0.175,-0.339,-0.872
-0.999,0.168,-0.026,-9.59,11.13,-3.22,-0.17,-0.339,-0.87
-1.02,0.166,-0.035,-9.87,10.36,-4.55,-0.17,-0.342,-0.874
-1.039,0.164,-0.038,-10.71,9.73,-6.02,-0.173,-0.342,-0.87
-1.04,0.143,-0.04,-10.08,9.17,-6.02,-0.166,-0.341,-0.871
-1.023,0.146,-0.045,-10.29,8.47,-5.46,-0.172,-0.343,-0.873
-0.992,0.148,-0.054,-8.05,6.02,-5.67,-0.172,-0.343,-0.873
-0.975,0.152,-0.044,-4.48,2.59,-4.83,-0.175,-0.346,-0.872
-0.978,0.146,-0.035,-0.7,0.21,-4.34,-0.172,-0.346,-0.87
-0.973,0.133,-0.035,1.68,-1.33,-3.64,-0.17,-0.346,-0.868
-0.96,0.117,-0.034,3.08,-2.45,-2.17,-0.172,-0.343,-0.875
-0.972,0.104,-0.03,3.01,-4.13,0.0,-0.17,-0.347,-0.874
-1.003,0.11,-0.021,0.91,-5.6,2.38,-0.172,-0.345,-0.875
-1.013,0.119,-0.018,-1.19,-4.76,4.13,-0.175,-0.343,-0.868
-1.001,0.115,-0.019,-2.17,-4.34,5.46,-0.17,-0.343,-0.873
-0.993,0.119,-0.019,-4.06,-5.95,7.14,-0.171,-0.341,-0.875
-0.998,0.137,-0.021,-5.25,-6.93,7.28,-0.173,-0.341,-0.878
-1.005,0.142,-0.024,-4.41,-7.98,7.49,-0.175,-0.342,-0.87
-1.026,0.136,-0.027,-3.57,-9.17,7.49,-0.175,-0.34,-0.868
-1.049,0.136,-0.027,-2.66,-10.5,8.19,-0.172,-0.34,-0.864
-1.049,0.145,-0.013,-1.12,-10.57,9.38,-0.171,-0.339,-0.868
-1.018,0.156,0.01,4.41,-11.27,11.9,-0.17,-0.336,-0.863
-1.008,0.151,0.012,7.56,-12.6,13.23,-0.174,-0.336,-0.864
-1.006,0.132,0.011,8.12,-13.02,13.09,-0.172,-0.334,-0.86
-1.009,0.116,0.016,5.95,-12.95,11.9,-0.17,-0.334,-0.864
-1.018,0.119,0.017,0.91,-12.18,10.08,-0.169,-0.328,-0.853
-1.027,0.131,0.019,-2.73,-10.78,9.31,-0.171,-0.333,-0.861
-1.02,0.143,0.021,-4.34,-8.4,8.96,-0.173,-0.329,-0.859
-0.985,0.148,0.018,-3.85,-5.95,8.61,-0.171,-0.326,-0.854
-0.973,0.156,0.014,-2.66,-6.16,7.84,-0.173,-0.327,-0.849
-0.984,0.161,0.007,-0.56,-6.72,7.91,-0.172,-0.328,-0.851
-1.01,0.162,0.011,2.59,-7.35,8.47,-0.178,-0.325,-0.846
-1.038,0.152,0.014,5.67,-7.21,9.1,-0.172,-0.323,-0.852
-1.066,0.146,0.016,6.86,-6.09,9.87,-0.175,-0.326,-0.853
-1.069,0.138,0.007,5.95,-4.48,9.94,-0.176,-0.321,-0.847
-1.085,0.143,0.0,3.5,-4.48,9.73,-0.177,-0.32,-0.846
-1.122,0.153,0.0,0.35,-4.2,8.75,-0.177,-0.324,-0.845
-1.159,0.158,0.008,-1.05,-3.57,8.54,-0.173,-0.319,-0.849
-1.188,0.172,0.02,-0.42,-2.38,9.17,-0.176,-0.317,-0.846
-1.194,0.184,0.026,0.91,-0.63,8.05,-0.173,-0.315,-0.854
-1.184,0.192,0.034,4.06,1.4,7.21,-0.18,-0.313,-0.845
-1.166,0.192,0.036,6.72,3.36,5.32,-0.179,-0.314,-0.846
-1.139,0.181,0.038,9.38,5.74,0.28,-0.179,-0.32,-0.854
-1.137,0.179,0.043,10.5,6.93,-3.43,-0.178,-0.319,-0.852
-1.151,0.177,0.049,10.99,7.77,-6.02,-0.181,-0.32,-0.858
-1.168,0.172,0.052,12.11,10.08,-8.4,-0.18,-0.321,-0.854
-1.177,0.163,0.048,13.16,13.16,-9.73,-0.175,-0.324,-0.868
-1.216,0.159,0.051,13.51,16.94,-10.01,-0.173,-0.327,-0.863
-1.183,0.162,0.054,13.44,19.53,-9.59,-0.178,-0.329,-0.867
-1.16,0.163,0.051,13.23,21.56,-9.8,-0.174,-0.327,-0.865
-1.137,0.168,0.051,12.88,21.91,-10.29,-0.176,-0.333,-0.875
-1.124,0.172,0.052,12.11,21.49,-11.48,-0.179,-0.338,-0.873
-1.118,0.177,0.056,11.83,21.14,-13.3,-0.171,-0.334,-0.881
-1.113,0.181,0.051,12.11,21.28,-15.05,-0.175,-0.337,-0.887
-1.114,0.182,0.051,13.93,22.26,-17.08,-0.175,-0.341,-0.887
-1.1,0.178,0.055,15.33,24.29,-18.69,-0.175,-0.341,-0.889
-1.055,0.158,0.05,15.19,25.9,-20.16,-0.172,-0.341,-0.895
-1.022,0.152,0.045,13.44,27.3,-21.7,-0.175,-0.347,-0.898
-0.987,0.144,0.047,11.41,27.65,-23.31,-0.172,-0.349,-0.907
-0.952,0.15,0.049,9.1,27.3,-24.08,-0.177,-0.353,-0.9
-0.932,0.159,0.05,8.75,26.18,-24.36,-0.172,-0.358,-0.904
-0.929,0.164,0.047,10.08,24.57,-23.66,-0.172,-0.361,-0.909
-0.933,0.158,0.047,12.18,23.45,-22.19,-0.167,-0.368,-0.915
-0.922,0.155,0.049,13.65,23.45,-19.88,-0.167,-0.373,-0.923
-0.874,0.161,0.053,14.98,23.8,-18.55,-0.166,-0.372,-0.926
-0.835,0.164,0.061,16.24,22.4,-17.36,-0.163,-0.374,-0.934
-0.804,0.172,0.071,17.15,20.86,-16.52,-0.164,-0.38,-0.936
-0.787,0.179,0.083,18.62,18.97,-16.45,-0.162,-0.38,-0.933
-0.785,0.182,0.095,20.23,17.43,-16.31,-0.159,-0.383,-0.937
-0.799,0.18,0.106,21.56,16.52,-15.96,-0.163,-0.384,-0.945
-0.817,0.18,0.114,21.49,17.43,-15.4,-0.163,-0.387,-0.954
-0.829,0.177,0.121,20.51,19.81,-14.98,-0.158,-0.388,-0.958
-0.833,0.174,0.121,19.04,21.77,-14.21,-0.161,-0.392,-0.964
-0.839,0.17,0.121,16.03,23.45,-13.65,-0.155,-0.392,-0.963
-0.849,0.16,0.122,11.06,25.69,-13.3,-0.16,-0.397,-0.972
-0.849,0.149,0.12,3.08,28.0,-13.65,-0.154,-0.399,-0.969
-0.83,0.168,0.119,-9.03,29.96,-13.72,-0.153,-0.404,-0.972
-0.81,0.177,0.111,-15.82,30.45,-14.56,-0.159,-0.399,-0.973
-0.802,0.183,0.106,-21.56,28.84,-14.98,-0.151,-0.403,-0.975
-0.814,0.196,0.103,-26.18,26.95,-15.82,-0.153,-0.402,-0.981
-0.831,0.21,0.097,-29.12,25.62,-16.8,-0.151,-0.405,-0.974
-0.84,0.219,0.087,-29.82,24.85,-17.29,-0.149,-0.407,-0.974
-0.86,0.223,0.079,-28.84,21.56,-16.24,-0.148,-0.409,-0.983
-0.901,0.222,0.08,-26.67,19.53,-14.07,-0.147,-0.414,-0.98
-0.91,0.222,0.078,-24.57,17.99,-10.85,-0.15,-0.414,-0.978
-0.914,0.219,0.076,-22.82,15.33,-7.14,-0.151,-0.414,-0.98
-0.915,0.214,0.081,-21.84,12.18,-3.36,-0.147,-0.417,-0.98
-0.895,0.21,0.087,-22.12,10.36,0.42,-0.15,-0.419,-0.981
-0.842,0.207,0.083,-23.17,8.68,3.43,-0.145,-0.418,-0.982
-0.804,0.208,0.071,-24.78,4.62,5.53,-0.148,-0.416,-0.984
-0.816,0.221,0.074,-25.27,-1.33,7.98,-0.144,-0.411,-0.978
-0.871,0.236,0.078,-23.45,-5.95,11.34,-0.147,-0.414,-0.977
-0.955,0.245,0.086,-19.81,-10.43,20.09,-0.147,-0.407,-0.975
-1.052,0.254,0.095,-12.11,-16.73,27.93,-0.147,-0.404,-0.971
-1.2,0.23,0.098,-9.73,-19.6,35.84,-0.152,-0.402,-0.965
-1.275,0.213,0.08,-13.02,-22.26,42.91,-0.153,-0.395,-0.965
-1.301,0.218,0.09,-20.3,-24.57,47.95,-0.162,-0.39,-0.961
-1.223,0.239,0.129,-27.58,-24.29,50.26,-0.16,-0.384,-0.954
-1.06,0.259,0.162,-32.2,-25.13,49.07,-0.162,-0.379,-0.944
-0.901,0.283,0.203,-33.18,-30.17,44.66,-0.166,-0.374,-0.938
-0.785,0.309,0.232,-30.1,-36.61,38.36,-0.173,-0.372,-0.936
-0.728,0.341,0.246,-12.11,-45.22,31.01,-0.173,-0.369,-0.932
-0.738,0.373,0.256,7.84,-49.07,28.42,-0.177,-0.366,-0.921
-0.788,0.378,0.247,34.44,-51.73,26.74,-0.175,-0.36,-0.915
-0.864,0.356,0.232,62.86,-54.74,26.74,-0.179,-0.356,-0.916
-0.959,0.31,0.231,88.76,-57.26,28.56,-0.175,-0.356,-0.916
-1.072,0.248,0.248,108.85,-57.12,30.59,-0.174,-0.354,-0.914
-1.191,0.185,0.278,120.12,-52.57,33.67,-0.178,-0.354,-0.918
-1.265,0.112,0.315,119.56,-42.14,35.49,-0.179,-0.352,-0.918
-1.254,0.037,0.324,104.37,-27.93,35.21,-0.181,-0.352,-0.918
-1.166,-0.02,0.322,75.53,-15.75,32.62,-0.18,-0.35,-0.923
-1.066,-0.028,0.318,16.31,-5.39,25.2,-0.182,-0.341,-0.925
-0.962,0.029,0.31,-20.51,-2.59,15.96,-0.183,-0.339,-0.921
-0.935,0.106,0.292,-48.09,-1.26,6.44,-0.186,-0.337,-0.918
-0.939,0.179,0.286,-61.95,-0.98,-1.47,-0.183,-0.337,-0.92
-0.959,0.212,0.275,-61.81,1.4,-6.93,-0.184,-0.333,-0.919
-0.981,0.244,0.261,-53.48,5.53,-10.43,-0.188,-0.336,-0.914
-0.998,0.258,0.22,-30.1,12.6,-12.88,-0.184,-0.339,-0.914
-1.018,0.228,0.224,-13.44,17.36,-13.16,-0.185,-0.34,-0.911
-1.034,0.174,0.215,-2.45,21.14,-12.53,-0.183,-0.342,-0.915
-1.041,0.116,0.222,-0.63,25.13,-12.67,-0.184,-0.344,-0.915
-1.028,0.094,0.213,-7.21,29.33,-13.37,-0.181,-0.343,-0.917
-1.014,0.104,0.201,-17.36,30.38,-14.0,-0.186,-0.344,-0.919
-1.015,0.125,0.187,-26.32,29.68,-14.84,-0.186,-0.349,-0.924
-1.012,0.141,0.175,-34.44,30.45,-16.38,-0.186,-0.351,-0.924
-0.982,0.145,0.158,-37.73,31.57,-17.36,-0.18,-0.352,-0.931
-0.936,0.165,0.135,-38.08,29.82,-16.87,-0.185,-0.351,-0.934
-0.931,0.19,0.133,-34.86,26.74,-16.1,-0.182,-0.352,-0.933
-0.935,0.194,0.127,-27.79,24.5,-15.19,-0.182,-0.353,-0.929
-0.939,0.189,0.121,-20.44,22.68,-13.72,-0.176,-0.356,-0.936
-0.948,0.185,0.115,-13.86,20.65,-12.25,-0.181,-0.358,-0.932
-0.959,0.184,0.112,-7.63,18.69,-10.78,-0.18,-0.359,-0.943
-0.967,0.172,0.107,-2.87,16.87,-9.03,-0.178,-0.358,-0.945
-0.968,0.161,0.103,0.28,13.93,-7.0,-0.182,-0.362,-0.939
-0.96,0.159,0.104,0.84,11.27,-6.09,-0.177,-0.366,-0.948
-0.95,0.165,0.107,1.33,8.4,-5.18,-0.177,-0.363,-0.952
-0.944,0.172,0.111,2.87,5.18,-4.9,-0.184,-0.36,-0.949
-0.938,0.177,0.113,5.11,2.17,-4.27,-0.175,-0.358,-0.947
-0.937,0.181,0.117,8.05,-1.54,-2.87,-0.177,-0.359,-0.946
-0.968,0.185,0.124,14.28,-5.04,-1.4,-0.179,-0.367,-0.945
-0.943,0.179,0.129,18.55,-7.42,0.42,-0.179,-0.366,-0.951
-0.949,0.172,0.135,21.84,-9.52,1.96,-0.177,-0.365,-0.95
-0.949,0.168,0.139,24.01,-10.71,3.29,-0.176,-0.364,-0.948
-0.954,0.16,0.15,24.71,-12.25,4.2,-0.175,-0.364,-0.949
-0.962,0.156,0.159,24.22,-13.44,5.39,-0.178,-0.363,-0.95
-0.972,0.156,0.166,22.68,-14.63,5.74,-0.178,-0.365,-0.953
-0.978,0.157,0.172,20.86,-14.63,5.88,-0.177,-0.363,-0.948
-0.982,0.161,0.179,18.27,-14.42,6.23,-0.178,-0.359,-0.948
-0.986,0.161,0.185,17.01,-14.0,6.23,-0.178,-0.362,-0.95
-0.991,0.163,0.188,15.4,-13.65,6.09,-0.179,-0.359,-0.95
-0.997,0.163,0.192,13.93,-12.88,5.53,-0.181,-0.357,-0.947
-0.998,0.163,0.195,12.53,-11.48,5.11,-0.181,-0.361,-0.945
-0.994,0.164,0.2,10.08,-9.87,3.85,-0.18,-0.356,-0.944
-0.993,0.167,0.203,8.82,-9.17,3.22,-0.176,-0.359,-0.948
-1.0,0.168,0.209,7.91,-8.19,2.45,-0.172,-0.358,-0.946
-1.0,0.169,0.211,7.35,-6.72,2.03,-0.175,-0.356,-0.946
-0.997,0.165,0.202,6.79,-5.11,1.54,-0.175,-0.351,-0.941
-1.001,0.158,0.201,5.74,-4.69,1.26,-0.178,-0.355,-0.939
-1.01,0.157,0.213,4.62,-3.99,1.12,-0.175,-0.355,-0.944
-1.011,0.163,0.22,3.78,-2.66,0.63,-0.18,-0.359,-0.943
-1.0,0.169,0.22,4.27,-1.19,0.28,-0.175,-0.357,-0.946
-0.99,0.167,0.215,6.79,-0.21,0.56,-0.174,-0.357,-0.94
-0.99,0.15,0.218,7.98,0.7,1.26,-0.176,-0.355,-0.943
-0.988,0.145,0.214,7.91,2.38,2.24,-0.172,-0.354,-0.946
-0.987,0.142,0.21,6.86,3.64,3.01,-0.179,-0.355,-0.948
-0.99,0.139,0.206,5.18,4.76,3.78,-0.177,-0.354,-0.947
-0.992,0.138,0.201,2.1,6.37,3.92,-0.176,-0.354,-0.951
-0.99,0.142,0.196,-1.4,7.77,3.85,-0.179,-0.355,-0.95
-0.984,0.15,0.186,-6.02,9.24,3.5,-0.179,-0.355,-0.953
-0.984,0.161,0.173,-8.19,9.1,3.43,-0.179,-0.356,-0.95
-0.985,0.171,0.167,-9.52,9.66,3.29,-0.179,-0.355,-0.953
-0.98,0.178,0.158,-9.87,9.94,3.22,-0.175,-0.356,-0.952
-0.974,0.183,0.154,-9.66,9.59,2.87,-0.175,-0.352,-0.95
-0.975,0.189,0.154,-8.89,8.4,2.73,-0.178,-0.354,-0.955
-0.976,0.193,0.15,-7.28,7.7,2.52,-0.179,-0.355,-0.947
-0.974,0.194,0.148,-5.6,6.44,2.52,-0.178,-0.355,-0.948
-0.971,0.197,0.145,-3.99,4.62,1.96,-0.179,-0.354,-0.952
-0.968,0.199,0.142,-1.05,3.43,1.89,-0.179,-0.356,-0.954
-0.967,0.194,0.141,0.7,2.17,1.61,-0.179,-0.355,-0.958
-0.966,0.19,0.143,1.89,1.05,1.19,-0.181,-0.354,-0.95
-0.964,0.187,0.142,2.31,-0.07,0.35,-0.185,-0.356,-0.955
-0.966,0.188,0.145,2.31,-0.84,-0.35,-0.181,-0.352,-0.958
-0.969,0.186,0.15,2.52,-1.82,-0.77,-0.183,-0.357,-0.951
-0.968,0.186,0.152,3.01,-2.38,-1.4,-0.182,-0.358,-0.956
-0.968,0.185,0.154,3.57,-3.29,-1.68,-0.179,-0.356,-0.955
-0.973,0.183,0.157,3.64,-3.99,-2.03,-0.186,-0.355,-0.963
-0.973,0.182,0.162,3.99,-4.55,-2.1,-0.182,-0.358,-0.956
-0.972,0.182,0.163,4.27,-4.97,-2.45,-0.176,-0.356,-0.958
-0.969,0.182,0.165,4.69,-5.39,-2.87,-0.181,-0.36,-0.953
-0.971,0.181,0.167,5.32,-5.81,-2.94,-0.179,-0.364,-0.956
-0.975,0.18,0.177,6.23,-6.72,-3.43,-0.178,-0.363,-0.955
-0.967,0.177,0.179,7.14,-6.58,-3.64,-0.178,-0.36,-0.952
-0.972,0.171,0.177,7.77,-7.14,-3.85,-0.177,-0.361,-0.949
-0.984,0.166,0.187,7.84,-7.56,-3.85,-0.179,-0.361,-0.948
-0.981,0.167,0.195,7.63,-6.93,-4.27,-0.177,-0.364,-0.946
-0.973,0.172,0.195,8.33,-6.23,-4.27,-0.177,-0.364,-0.951
-0.981,0.168,0.201,9.73,-7.42,-4.34,-0.177,-0.358,-0.95
-0.991,0.16,0.206,11.2,-6.72,-4.34,-0.179,-0.361,-0.947
-0.993,0.15,0.208,11.34,-5.88,-4.13,-0.176,-0.367,-0.945
-0.986,0.144,0.208,10.57,-4.69,-3.92,-0.175,-0.365,-0.947
-0.983,0.144,0.211,8.89,-3.64,-3.5,-0.175,-0.365,-0.943
-0.984,0.14,0.209,7.63,-2.59,-3.08,-0.174,-0.367,-0.946
