ax,ay,az,gx,gy,gz,mx,my,mz
-0.27,0.599,0.752,-0.77,-3.36,-0.77,0.066,-0.463,-1.16
-0.271,0.6,0.75,-0.7,-3.43,-0.84,0.072,-0.464,-1.16
-0.275,0.601,0.746,-0.77,-3.57,-0.56,0.068,-0.46,-1.163
-0.275,0.605,0.743,-1.26,-3.15,-0.35,0.072,-0.467,-1.169
-0.266,0.612,0.744,-0.7,-3.36,-0.84,0.068,-0.466,-1.169
-0.267,0.605,0.745,0.42,-4.06,-0.98,0.075,-0.501,-1.163
-0.273,0.598,0.75,1.26,-4.34,-1.19,0.07,-0.466,-1.166
-0.27,0.594,0.756,0.84,-4.06,-1.54,0.072,-0.465,-1.167
-0.266,0.595,0.752,0.28,-3.43,-1.75,0.076,-0.465,-1.163
-0.273,0.592,0.759,1.26,-3.36,-1.54,0.077,-0.465,-1.163
-0.279,0.588,0.756,0.77,-2.8,-1.68,0.071,-0.466,-1.165
-0.282,0.591,0.752,-0.35,-2.24,-1.82,0.074,-0.469,-1.159
-0.281,0.6,0.75,-1.33,-2.03,-1.96,0.066,-0.469,-1.155
-0.274,0.608,0.747,-1.26,-1.68,-1.96,0.072,-0.467,-1.168
-0.269,0.602,0.741,0.07,-2.45,-1.89,0.074,-0.466,-1.156
-0.268,0.59,0.747,1.19,-3.43,-1.54,0.07,-0.465,-1.165
-0.269,0.579,0.759,1.05,-5.18,-1.05,0.071,-0.466,-1.168
-0.245,0.554,0.79,-6.3,-7.07,-0.28,0.073,-0.467,-1.164
-0.198,0.549,0.864,-14.84,-9.31,0.28,0.075,-0.469,-1.159
-0.169,0.595,1.047,-14.07,-9.73,0.42,0.071,-0.47,-1.161
-0.169,0.644,1.078,-7.21,-2.45,-0.98,0.064,-0.472,-1.16
-0.087,0.594,1.013,-9.17,7.07,-2.17,0.071,-0.473,-1.162
0.03,0.522,0.949,-39.55,15.26,-6.44,0.074,-0.474,-1.16
0.07,0.612,0.834,-67.69,22.12,-19.88,0.079,-0.484,-1.163
-0.031,0.573,0.814,-92.54,22.47,-42.7,0.085,-0.487,-1.142
0.191,0.886,0.636,-105.28,52.919,-2.8,0.092,-0.494,-1.127
0.115,1.046,0.694,-54.25,17.99,7.42,0.091,-0.498,-1.127
-0.03,0.838,0.711,-12.67,4.76,-15.82,0.095,-0.502,-1.124
-0.071,0.687,0.68,8.26,0.7,-9.52,0.1,-0.504,-1.125
-0.09,0.66,0.647,8.68,0.07,-1.19,0.102,-0.501,-1.127
-0.092,0.662,0.556,-0.7,3.29,-4.83,0.105,-0.503,-1.128
-0.08,0.675,0.514,-7.49,-0.49,-9.24,0.113,-0.504,-1.134
-0.09,0.691,0.568,-6.16,-4.69,-6.23,0.116,-0.503,-1.129
-0.093,0.672,0.572,-2.24,-7.91,-4.76,0.116,-0.51,-1.128
-0.089,0.664,0.553,3.78,-12.88,-3.01,0.116,-0.514,-1.126
-0.096,0.648,0.548,13.09,-17.43,-4.34,0.12,-0.51,-1.13
-0.118,0.62,0.576,20.65,-22.12,-4.83,0.119,-0.514,-1.135
-0.134,0.612,0.654,18.62,-24.01,-1.75,0.121,-0.517,-1.135
-0.139,0.602,0.728,10.92,-19.18,0.35,0.123,-0.514,-1.133
-0.128,0.601,0.764,4.48,-16.31,3.15,0.123,-0.516,-1.134
-0.127,0.665,0.775,-1.19,-13.23,4.48,0.118,-0.513,-1.14
-0.121,0.743,0.788,-6.09,-9.73,2.52,0.117,-0.51,-1.132
-0.098,0.802,0.795,-6.09,-6.23,-0.07,0.122,-0.512,-1.14
-0.083,0.831,0.792,2.66,-6.23,-4.69,0.122,-0.516,-1.133
-0.109,0.815,0.792,8.47,-7.98,-7.42,0.123,-0.517,-1.142
-0.119,0.803,0.798,10.78,-6.37,-11.55,0.127,-0.515,-1.137
-0.08,0.822,0.814,9.1,-1.82,-15.54,0.132,-0.516,-1.14
-0.013,0.847,0.826,7.0,0.14,-18.34,0.132,-0.517,-1.148
0.043,0.857,0.815,8.75,-0.7,-21.84,0.138,-0.513,-1.147
0.058,0.857,0.787,12.25,-3.36,-26.39,0.14,-0.513,-1.142
0.001,0.794,0.731,9.17,-9.38,-33.67,0.148,-0.517,-1.147
0.002,0.746,0.8,-8.19,-10.15,-39.27,0.153,-0.519,-1.151
0.032,0.762,0.83,-38.85,-4.27,-45.29,0.16,-0.523,-1.152
0.016,0.813,0.802,-67.69,-1.47,-50.82,0.161,-0.525,-1.137
-0.045,1.0,0.731,-76.93,2.52,-56.91,0.169,-0.527,-1.128
-0.072,1.227,0.594,-69.72,9.87,-69.02,0.181,-0.536,-1.12
-0.09,1.287,0.5,-37.87,8.26,-78.96,0.189,-0.534,-1.111
-0.175,1.149,0.413,23.24,-10.57,-81.06,0.202,-0.537,-1.113
-0.272,1.02,0.436,26.04,-21.7,-89.88,0.21,-0.535,-1.126
-0.349,0.895,0.542,1.54,-21.49,-97.86,0.221,-0.534,-1.123
-0.383,0.836,0.578,-37.94,-14.98,-102.2,0.235,-0.539,-1.118
-0.362,0.807,0.55,-71.12,-4.41,-117.95,0.242,-0.538,-1.116
-0.299,0.713,0.353,-123.13,4.2,-126.28,0.266,-0.547,-1.097
-0.271,0.828,0.325,-172.97,-10.85,-100.24,0.276,-0.55,-1.082
-0.293,0.998,0.34,-183.89,-13.44,-103.81,0.283,-0.549,-1.054
-0.285,1.049,0.309,-171.99,-15.19,-96.53,0.298,-0.559,-1.036
-0.276,1.089,0.316,-145.74,-23.31,-76.09,0.313,-0.558,-1.023
-0.257,1.08,0.343,-129.5,-31.57,-61.95,0.321,-0.549,-1.005
-0.204,1.065,0.336,-123.62,-28.35,-51.17,0.322,-0.55,-0.993
-0.19,1.123,0.381,-114.66,-27.3,-35.42,0.327,-0.555,-0.98
-0.226,0.922,0.553,-88.83,-36.47,-14.49,0.335,-0.554,-0.966
-0.264,0.826,0.582,-80.5,-37.03,10.78,0.334,-0.555,-0.965
-0.206,0.735,0.5,-119.84,-24.22,19.04,0.331,-0.553,-0.947
-0.111,0.871,0.344,-167.23,-11.69,26.11,0.327,-0.553,-0.935
-0.09,1.134,0.22,-192.71,-6.65,22.26,0.322,-0.547,-0.917
-0.12,1.326,0.052,-175.56,-5.32,10.78,0.317,-0.545,-0.886
-0.102,1.207,-0.1,-127.47,-3.22,6.3,0.314,-0.542,-0.872
-0.004,0.997,-0.159,-82.25,-5.46,15.75,0.313,-0.539,-0.86
0.08,0.946,-0.13,-71.82,-12.81,19.53,0.314,-0.539,-0.852
0.041,1.053,-0.008,-96.81,-14.84,6.79,0.318,-0.537,-0.841
-0.097,1.168,-0.023,-91.49,-3.15,-3.99,0.31,-0.529,-0.824
-0.114,1.195,-0.083,-71.33,5.81,-11.62,0.312,-0.53,-0.814
-0.117,1.055,-0.101,-44.24,12.32,-23.87,0.313,-0.522,-0.815
-0.018,0.832,-0.078,-9.73,15.4,-21.42,0.317,-0.519,-0.808
-0.017,0.748,-0.116,1.82,13.3,-11.9,0.322,-0.523,-0.814
-0.108,0.815,-0.072,10.43,10.15,-6.37,0.319,-0.52,-0.816
-0.16,0.83,-0.101,19.11,8.54,-10.71,0.319,-0.523,-0.81
-0.065,0.713,-0.189,23.17,3.29,-9.45,0.32,-0.522,-0.816
-0.045,0.673,-0.159,13.37,-2.52,-6.3,0.319,-0.523,-0.815
-0.094,0.785,-0.119,8.54,-3.29,-4.83,0.325,-0.525,-0.815
-0.032,0.835,-0.16,10.08,-3.08,-2.8,0.322,-0.522,-0.819
-0.059,0.938,-0.142,11.97,-3.71,0.0,0.319,-0.523,-0.816
-0.046,0.899,-0.092,17.29,-1.26,-0.63,0.32,-0.519,-0.821
-0.01,0.862,-0.073,14.91,1.82,-1.4,0.324,-0.526,-0.825
0.014,0.849,-0.101,10.78,3.15,-0.98,0.324,-0.528,-0.824
0.049,0.849,-0.128,7.28,4.34,-0.42,0.325,-0.527,-0.828
0.07,0.943,-0.136,-9.87,3.71,-1.26,0.322,-0.525,-0.823
0.107,0.991,-0.135,-16.66,3.5,-4.13,0.321,-0.525,-0.823
0.127,0.963,-0.102,-13.23,1.54,-5.88,0.324,-0.526,-0.815
0.112,0.934,-0.113,-8.05,-0.91,-7.98,0.325,-0.522,-0.819
0.115,0.927,-0.108,-2.66,-2.17,-9.52,0.319,-0.522,-0.821
0.101,0.948,-0.115,3.22,-3.01,-9.87,0.326,-0.524,-0.816
0.07,0.94,-0.132,7.28,-3.22,-12.74,0.327,-0.523,-0.818
0.05,0.937,-0.116,5.39,-2.45,-19.32,0.329,-0.523,-0.822
0.002,0.849,-0.101,6.93,-2.24,-22.19,0.329,-0.524,-0.823
-0.02,0.723,-0.06,10.71,-2.52,-19.25,0.336,-0.519,-0.824
-0.024,0.676,-0.021,5.95,-2.59,-13.58,0.335,-0.521,-0.829
0.012,0.72,0.001,0.7,-2.38,-5.95,0.334,-0.519,-0.822
0.075,0.786,-0.002,-1.19,-1.47,1.82,0.332,-0.519,-0.821
0.13,0.866,-0.015,0.56,-0.49,9.17,0.336,-0.521,-0.825
0.14,0.92,-0.096,9.03,0.28,16.31,0.336,-0.526,-0.819
0.138,0.953,-0.121,9.17,-0.14,17.99,0.332,-0.524,-0.824
0.137,0.971,-0.143,7.77,0.21,15.12,0.326,-0.522,-0.819
0.145,0.965,-0.161,4.9,0.35,11.06,0.325,-0.524,-0.825
0.145,0.983,-0.18,0.28,0.63,6.58,0.325,-0.523,-0.826
0.137,1.01,-0.178,-2.87,1.05,1.89,0.326,-0.525,-0.819
0.136,1.008,-0.187,-3.64,1.47,-1.75,0.321,-0.526,-0.818
0.111,0.995,-0.153,-6.79,-0.07,-4.62,0.325,-0.528,-0.822
0.113,1.0,-0.129,-10.43,-0.56,-4.9,0.328,-0.524,-0.823
0.11,1.019,-0.12,-8.96,-1.12,-3.92,0.322,-0.522,-0.818
0.106,1.002,-0.131,-3.08,-1.96,-2.24,0.324,-0.525,-0.82
0.112,1.0,-0.124,0.77,-2.94,0.21,0.321,-0.522,-0.82
0.097,1.003,-0.122,0.98,-4.62,1.82,0.323,-0.525,-0.823
0.087,1.003,-0.102,-0.77,-5.74,1.61,0.326,-0.525,-0.82
0.114,1.024,-0.091,-1.4,-5.81,0.98,0.326,-0.525,-0.821
0.101,1.021,-0.087,2.87,-5.88,0.63,0.327,-0.519,-0.823
0.087,1.001,-0.089,8.26,-5.53,0.63,0.329,-0.521,-0.816
0.087,0.97,-0.079,11.27,-4.76,1.47,0.327,-0.52,-0.817
0.088,0.946,-0.08,8.89,-3.78,2.66,0.327,-0.524,-0.818
0.093,0.961,-0.081,3.01,-3.15,3.92,0.323,-0.521,-0.827
0.106,1.0,-0.087,0.07,-3.01,5.18,0.328,-0.522,-0.821
0.1,1.009,-0.111,5.04,-3.78,5.25,0.325,-0.522,-0.818
0.09,0.999,-0.094,7.98,-4.76,5.81,0.323,-0.529,-0.824
0.091,1.005,-0.087,9.03,-4.9,5.74,0.325,-0.53,-0.827
0.105,1.007,-0.084,10.29,-5.11,5.32,0.327,-0.527,-0.825
0.109,1.005,-0.083,11.97,-5.81,4.41,0.328,-0.531,-0.828
0.111,0.983,-0.074,11.97,-6.3,3.01,0.326,-0.531,-0.825
0.109,0.99,-0.067,10.36,-6.44,2.1,0.324,-0.526,-0.83
0.107,0.999,-0.061,9.87,-6.51,1.54,0.327,-0.528,-0.83
0.117,1.003,-0.05,13.44,-6.72,1.33,0.328,-0.527,-0.83
0.115,1.011,-0.026,18.97,-7.49,1.26,0.323,-0.528,-0.837
0.109,1.01,-0.014,27.16,-7.49,0.35,0.324,-0.528,-0.842
0.101,0.998,0.014,35.07,-8.19,-0.56,0.324,-0.537,-0.844
0.088,0.99,0.044,41.09,-7.91,-0.84,0.328,-0.536,-0.849
0.09,0.976,-0.009,42.49,-5.67,-0.91,0.328,-0.535,-0.852
0.109,0.906,-0.067,43.47,-5.6,-1.33,0.324,-0.537,-0.864
0.084,0.868,-0.066,39.55,-7.91,0.07,0.326,-0.54,-0.863
0.042,0.863,-0.022,26.32,-10.01,0.35,0.328,-0.538,-0.866
0.026,0.893,0.012,12.95,-9.17,0.98,0.328,-0.54,-0.877
0.04,0.917,0.024,5.18,-7.42,0.14,0.327,-0.539,-0.873
0.046,0.918,0.029,0.28,-7.63,-1.26,0.327,-0.539,-0.871
0.046,0.924,0.04,-3.57,-6.79,-0.91,0.327,-0.54,-0.871
0.041,0.938,0.059,-5.53,-5.74,-0.77,0.332,-0.539,-0.872
0.043,0.957,0.04,-6.51,-4.27,0.0,0.328,-0.539,-0.869
0.052,0.987,0.045,-6.58,-4.2,1.54,0.325,-0.542,-0.872
0.056,1.001,0.063,-6.09,-3.99,2.8,0.327,-0.539,-0.87
0.048,0.988,0.048,-4.55,-3.85,4.2,0.323,-0.543,-0.863
0.024,0.959,0.039,-5.32,-5.39,5.39,0.323,-0.538,-0.869
0.018,0.951,0.046,-9.24,-5.32,7.56,0.322,-0.539,-0.866
0.028,0.996,0.03,-14.84,-5.18,7.77,0.32,-0.542,-0.869
0.053,1.022,0.001,-12.81,-5.04,7.77,0.322,-0.542,-0.858
0.06,1.023,0.008,-8.54,-5.53,7.63,0.327,-0.539,-0.861
0.077,1.037,0.024,-7.14,-4.41,6.44,0.328,-0.536,-0.863
0.108,1.042,0.013,-4.83,-2.87,4.83,0.32,-0.539,-0.859
0.103,1.047,0.022,-1.61,-3.15,3.99,0.319,-0.536,-0.854
0.09,1.02,0.02,3.01,-2.24,4.27,0.321,-0.539,-0.851
0.093,0.991,0.014,2.24,-1.82,5.46,0.321,-0.539,-0.855
0.075,1.027,0.018,0.07,-2.31,5.46,0.321,-0.539,-0.86
0.069,1.061,0.014,1.33,-1.96,4.83,0.321,-0.539,-0.856
0.067,1.062,0.014,5.04,-1.82,3.5,0.322,-0.54,-0.86
0.059,1.039,0.019,8.61,-2.31,1.75,0.319,-0.542,-0.863
0.061,0.997,0.036,10.57,-2.59,-0.56,0.321,-0.537,-0.859
0.066,0.99,0.069,10.43,-1.82,-1.26,0.319,-0.538,-0.864
0.075,0.991,0.064,8.82,-0.21,-2.66,0.319,-0.538,-0.865
0.073,0.974,0.027,7.63,1.75,-4.2,0.319,-0.538,-0.863
0.066,0.956,0.01,5.46,2.8,-4.48,0.32,-0.536,-0.86
0.059,0.966,0.02,2.38,3.5,-4.34,0.323,-0.537,-0.864
0.055,0.995,0.027,0.21,3.92,-4.13,0.319,-0.541,-0.863
0.047,1.0,0.023,2.1,3.85,-4.76,0.32,-0.545,-0.865
0.043,0.981,-0.028,3.92,3.64,-4.76,0.323,-0.54,-0.863
0.035,0.94,-0.043,2.1,2.17,-4.69,0.319,-0.542,-0.863
0.059,0.96,-0.019,-1.33,-0.14,-3.5,0.318,-0.537,-0.857
0.07,0.981,-0.004,0.56,-2.45,-2.03,0.322,-0.539,-0.858
0.066,0.946,0.005,6.72,-3.78,-0.28,0.318,-0.541,-0.858
0.059,0.912,0.019,8.47,-4.41,2.03,0.32,-0.542,-0.863
0.051,0.924,0.024,3.85,-4.06,3.85,0.323,-0.537,-0.862
0.061,0.958,0.011,0.21,-3.36,4.55,0.322,-0.54,-0.863
0.063,0.991,0.053,-0.91,-3.85,4.2,0.322,-0.543,-0.866
0.066,1.008,0.045,0.28,-3.5,2.59,0.319,-0.542,-0.862
0.064,1.01,0.046,0.84,-3.15,1.33,0.321,-0.542,-0.861
0.057,1.003,0.043,0.56,-2.59,-0.28,0.324,-0.547,-0.864
0.066,0.992,0.04,-0.21,-1.61,-1.05,0.319,-0.543,-0.865
0.071,0.996,0.038,-2.03,-0.77,-1.54,0.321,-0.546,-0.863
0.072,0.998,0.029,-3.5,-0.49,-2.45,0.316,-0.541,-0.862
0.076,0.999,0.016,-2.24,-0.49,-2.03,0.323,-0.545,-0.856
0.049,0.996,0.013,-0.35,-1.33,-1.68,0.328,-0.546,-0.863
0.04,0.964,0.015,-0.07,-1.33,-1.33,0.321,-0.544,-0.862
0.052,0.953,0.019,-1.47,-1.26,-0.42,0.321,-0.543,-0.865
0.061,0.969,0.019,-3.01,-1.54,1.26,0.323,-0.548,-0.863
0.075,0.988,0.031,-2.17,-0.98,3.29,0.325,-0.547,-0.865
0.078,0.992,0.019,1.12,-1.26,4.55,0.32,-0.543,-0.863
0.079,0.962,-0.027,14.77,-1.19,5.74,0.32,-0.539,-0.869
0.104,0.897,0.041,19.95,-3.29,6.37,0.317,-0.543,-0.87
0.087,0.891,0.123,14.14,-4.97,4.76,0.321,-0.548,-0.869
0.038,0.941,0.157,5.95,-3.78,2.45,0.316,-0.542,-0.871
-0.007,1.003,0.101,-0.14,-1.61,-1.47,0.314,-0.545,-0.871
0.003,1.034,0.052,-0.98,-0.07,-4.2,0.314,-0.546,-0.87
0.032,1.016,0.032,0.77,0.84,-5.04,0.317,-0.546,-0.875
0.043,0.983,0.034,1.75,0.84,-4.76,0.315,-0.541,-0.874
0.059,0.967,0.016,-2.59,1.96,-2.73,0.318,-0.542,-0.871
0.068,0.99,-0.005,-5.18,2.38,-0.63,0.321,-0.541,-0.868
0.091,1.023,-0.002,-5.81,1.05,1.54,0.321,-0.546,-0.868
0.098,1.049,0.005,-4.27,-0.84,2.1,0.318,-0.544,-0.868
0.098,1.032,0.02,0.7,-2.17,1.82,0.318,-0.541,-0.867
0.109,0.994,0.014,4.69,-3.5,2.38,0.317,-0.54,-0.867
0.108,0.984,0.004,4.62,-4.97,2.87,0.315,-0.543,-0.861
0.101,0.98,0.005,4.48,-5.88,2.31,0.317,-0.543,-0.87
0.078,0.978,0.023,3.64,-6.44,1.05,0.321,-0.541,-0.864
0.055,0.969,0.045,2.59,-5.81,0.28,0.317,-0.542,-0.868
0.042,0.953,0.048,0.7,-4.48,-0.91,0.315,-0.542,-0.87
0.038,0.945,0.045,-1.05,-3.71,-1.33,0.315,-0.543,-0.868
0.028,0.942,0.046,-2.45,-3.22,-0.21,0.315,-0.543,-0.872
0.021,0.961,0.045,-4.27,-2.52,0.35,0.316,-0.542,-0.874
0.029,0.973,0.035,-5.67,-2.03,0.98,0.319,-0.544,-0.868
0.03,0.987,0.037,-4.76,-1.82,2.03,0.315,-0.541,-0.871
0.02,0.986,0.034,-3.92,-1.89,2.24,0.316,-0.544,-0.864
0.018,0.974,0.028,-3.64,-2.03,1.26,0.313,-0.547,-0.864
0.02,0.97,0.033,-3.08,-1.96,0.28,0.312,-0.542,-0.862
0.01,0.941,0.018,-0.84,-2.31,-1.05,0.318,-0.541,-0.862
-0.018,0.89,0.012,2.17,-1.96,-2.59,0.316,-0.543,-0.87
-0.079,0.81,0.008,3.43,-0.35,-3.36,0.315,-0.542,-0.864
-0.104,0.734,-0.031,3.71,1.4,-3.57,0.312,-0.545,-0.86
-0.121,0.643,-0.041,4.27,0.91,-3.85,0.313,-0.541,-0.865
-0.153,0.573,-0.015,6.86,-0.35,-3.29,0.312,-0.545,-0.868
-0.193,0.57,-0.017,19.95,-0.56,-2.1,0.317,-0.543,-0.868
-0.231,0.569,-0.029,41.02,-2.52,-1.47,0.319,-0.544,-0.871
-0.272,0.522,-0.038,68.04,-4.55,0.49,0.312,-0.547,-0.884
-0.34,0.489,-0.051,94.01,-8.68,7.42,0.314,-0.547,-0.891
-0.414,0.434,0.01,160.16,-14.63,20.79,0.314,-0.55,-0.916
-0.445,0.414,-0.073,201.18,-16.59,31.08,0.315,-0.552,-0.937
-0.469,0.378,-0.103,242.76,-22.61,46.2,0.305,-0.561,-0.972
-0.484,0.335,-0.077,261.94,-28.7,66.149,0.303,-0.561,-0.999
-0.461,0.228,-0.03,257.32,-29.12,83.72,0.294,-0.558,-1.019
-0.499,0.297,0.055,235.41,-34.65,112.0,0.276,-0.552,-1.072
-0.52,0.278,0.085,231.56,-44.17,136.36,0.269,-0.543,-1.093
-0.523,0.191,0.056,221.13,-70.84,197.33,0.232,-0.537,-1.133
-0.547,0.1,0.168,150.71,-106.68,222.18,0.206,-0.53,-1.15
-0.733,-0.005,0.375,18.41,-123.27,232.26,0.185,-0.532,-1.152
-0.962,0.261,0.599,-132.44,-130.34,228.83,0.137,-0.527,-1.132
-1.153,0.793,0.756,-228.06,-124.53,217.14,0.109,-0.529,-1.109
-1.277,1.423,0.749,-229.04,-107.1,219.94,0.084,-0.534,-1.05
-1.286,1.869,0.733,-141.12,-86.66,240.8,0.037,-0.522,-1.055
-1.172,1.951,0.721,-16.52,-77.21,246.26,0.015,-0.519,-1.054
-1.001,1.672,0.668,89.32,-89.53,225.33,-0.035,-0.493,-1.059
-0.988,1.442,0.692,151.34,-124.32,200.9,-0.051,-0.48,-1.068
-1.272,1.206,1.019,196.7,-166.18,157.43,-0.069,-0.466,-1.072
-1.429,1.056,1.077,178.64,-160.02,127.96,-0.095,-0.438,-1.073
-1.485,0.941,1.129,134.68,-118.72,91.909,-0.105,-0.427,-1.082
-1.432,0.852,1.175,73.71,-50.4,46.83,-0.122,-0.421,-1.078
-1.299,0.803,1.124,15.47,12.25,10.08,-0.123,-0.418,-1.083
-1.162,0.805,1.033,-26.39,49.0,-8.4,-0.121,-0.417,-1.084
-1.081,0.79,0.943,-54.04,74.76,-24.78,-0.108,-0.423,-1.077
-1.023,0.749,0.736,-82.95,116.83,-52.08,-0.109,-0.424,-1.083
-0.906,0.761,0.501,-91.91,144.69,-65.45,-0.093,-0.441,-1.09
-0.808,0.786,0.203,-91.0,160.51,-72.8,-0.084,-0.448,-1.093
-0.719,0.767,-0.013,-86.94,161.07,-71.68,-0.075,-0.454,-1.091
-0.659,0.738,-0.014,-81.9,150.36,-68.39,-0.057,-0.464,-1.091
-0.68,0.717,0.488,-50.68,141.12,-54.32,-0.048,-0.47,-1.1
-0.705,1.079,0.178,-33.95,142.1,-46.06,-0.032,-0.474,-1.106
-0.465,0.629,0.037,-25.97,118.09,-70.0,-0.024,-0.477,-1.108
-0.296,0.543,-0.043,-51.03,89.53,-57.26,-0.009,-0.483,-1.107
-0.173,0.705,-0.071,-72.38,65.87,-53.06,-0.002,-0.49,-1.103
0.063,0.905,0.468,-43.54,47.81,-55.09,0.002,-0.492,-1.099
0.0,-0.027,2.737,48.51,58.31,-29.4,0.013,-0.487,-1.11
0.017,0.933,1.684,48.929,95.06,-26.53,0.011,-0.483,-1.118
-0.043,0.376,0.826,19.95,81.34,-70.07,0.024,-0.489,-1.128
-0.254,0.518,0.378,-11.76,65.73,-42.56,0.032,-0.485,-1.13
-0.219,0.782,0.135,-19.32,68.879,-56.14,0.034,-0.491,-1.127
-0.03,0.77,0.219,19.46,47.6,-50.75,0.05,-0.491,-1.129
0.046,0.675,0.618,64.399,8.82,-26.18,0.055,-0.484,-1.138
-0.154,0.554,0.736,73.36,-10.99,-27.65,0.05,-0.484,-1.152
-0.337,0.369,0.68,63.139,-23.38,-17.29,0.056,-0.479,-1.146
-0.475,0.436,0.827,36.33,-15.89,-3.78,0.055,-0.476,-1.152
-0.426,0.531,0.767,9.94,1.4,-5.32,0.052,-0.47,-1.153
-0.309,0.601,0.725,-2.03,2.87,-4.55,0.053,-0.468,-1.154
-0.243,0.584,0.752,9.24,-6.86,-3.71,0.046,-0.463,-1.152
-0.258,0.481,0.837,29.89,-15.61,-8.4,0.044,-0.461,-1.154
-0.31,0.383,0.894,41.3,-14.77,-14.21,0.046,-0.461,-1.162
-0.325,0.306,0.908,38.57,-5.95,-19.88,0.047,-0.459,-1.167
-0.282,0.268,0.787,19.11,7.84,-31.5,0.052,-0.456,-1.165
-0.217,0.3,0.804,10.92,10.99,-33.11,0.052,-0.457,-1.168
-0.167,0.379,0.941,12.25,11.83,-28.49,0.056,-0.454,-1.163
-0.051,0.527,1.112,-1.4,16.87,-22.75,0.051,-0.457,-1.168
0.051,0.801,1.271,-48.65,27.02,-22.4,0.053,-0.459,-1.156
0.136,1.036,1.191,-88.62,45.43,-30.31,0.056,-0.463,-1.155
0.197,0.964,0.665,-84.63,49.07,-31.92,0.062,-0.47,-1.141
-0.006,0.483,0.407,-7.21,4.34,-21.49,0.068,-0.475,-1.139
-0.173,0.371,0.486,13.93,-10.57,-4.13,0.065,-0.48,-1.142
-0.215,0.391,0.569,3.71,-10.22,9.38,0.069,-0.477,-1.146
-0.176,0.536,0.629,-8.61,-8.61,20.44,0.068,-0.475,-1.148
-0.155,0.673,0.675,-1.82,-12.25,26.81,0.063,-0.471,-1.151
-0.226,0.722,0.727,17.85,-19.67,27.65,0.056,-0.466,-1.15
-0.333,0.717,0.778,26.81,-22.4,23.66,0.054,-0.466,-1.152
-0.384,0.7,0.811,11.13,-14.84,13.51,0.055,-0.467,-1.154
-0.365,0.677,0.795,-2.17,-6.79,2.66,0.051,-0.466,-1.152
-0.343,0.672,0.738,-5.25,-2.87,-5.39,0.05,-0.464,-1.145
-0.354,0.642,0.725,0.91,-2.52,-11.41,0.05,-0.465,-1.155
-0.344,0.589,0.73,8.33,-1.96,-15.05,0.054,-0.462,-1.151
-0.331,0.603,0.753,8.61,0.49,-17.85,0.058,-0.46,-1.149
-0.307,0.642,0.785,6.44,3.29,-21.07,0.053,-0.462,-1.153
-0.274,0.673,0.8,7.07,5.04,-21.28,0.056,-0.464,-1.155
-0.241,0.673,0.782,12.6,6.72,-21.84,0.059,-0.468,-1.156
-0.2,0.584,0.714,15.96,4.76,-20.37,0.064,-0.464,-1.147
-0.198,0.543,0.698,15.82,1.82,-16.94,0.065,-0.464,-1.156
-0.199,0.538,0.711,14.0,0.42,-14.49,0.07,-0.458,-1.161
-0.199,0.564,0.729,13.72,-0.91,-11.9,0.07,-0.461,-1.159
-0.209,0.601,0.744,16.66,-2.66,-10.01,0.075,-0.463,-1.162
-0.226,0.606,0.76,20.44,-4.62,-9.31,0.076,-0.459,-1.168
-0.244,0.603,0.769,20.16,-5.53,-9.45,0.074,-0.458,-1.171
-0.251,0.602,0.773,17.01,-4.69,-11.13,0.08,-0.461,-1.169
-0.251,0.611,0.771,13.44,-3.64,-12.81,0.079,-0.458,-1.167
-0.251,0.613,0.766,14.56,-3.43,-13.93,0.08,-0.459,-1.17
-0.254,0.594,0.762,17.85,-3.85,-13.58,0.077,-0.456,-1.17
-0.256,0.576,0.769,20.93,-4.34,-12.39,0.087,-0.455,-1.172
-0.253,0.561,0.772,22.19,-4.13,-10.92,0.084,-0.453,-1.172
-0.243,0.542,0.77,22.33,-4.2,-9.38,0.084,-0.454,-1.178
-0.239,0.523,0.771,21.56,-5.25,-6.72,0.087,-0.453,-1.187
-0.24,0.505,0.78,19.46,-6.23,-3.57,0.087,-0.447,-1.181
-0.236,0.5,0.802,16.17,-6.37,-1.54,0.086,-0.449,-1.189
-0.232,0.5,0.807,13.09,-6.72,0.35,0.083,-0.448,-1.185
-0.236,0.505,0.807,9.38,-7.07,1.47,0.085,-0.444,-1.188
-0.246,0.499,0.808,5.39,-7.63,2.45,0.081,-0.445,-1.196
-0.255,0.509,0.806,0.63,-7.77,3.5,0.086,-0.446,-1.188
-0.254,0.533,0.8,-3.08,-6.93,3.43,0.084,-0.446,-1.189
-0.239,0.565,0.802,-4.2,-6.86,3.29,0.083,-0.441,-1.187
-0.232,0.569,0.802,-1.82,-7.14,2.73,0.083,-0.446,-1.19
-0.235,0.563,0.801,1.05,-7.42,2.1,0.081,-0.442,-1.185
-0.239,0.555,0.804,2.66,-7.21,1.75,0.079,-0.444,-1.186
-0.243,0.55,0.801,2.66,-6.37,1.68,0.079,-0.447,-1.186
-0.247,0.549,0.803,2.66,-5.95,1.54,0.079,-0.442,-1.186
-0.252,0.546,0.803,3.01,-5.53,1.61,0.073,-0.445,-1.183
-0.256,0.538,0.803,3.08,-5.39,2.03,0.072,-0.441,-1.186
-0.262,0.534,0.808,2.8,-4.69,2.1,0.078,-0.447,-1.188
-0.261,0.531,0.808,2.03,-4.48,2.17,0.082,-0.444,-1.188
