ax,ay,az,gx,gy,gz,mx,my,mz
-0.063,0.357,0.934,1.68,-2.24,-0.14,0.135,-0.369,-1.205
-0.063,0.355,0.935,1.4,-1.89,-0.07,0.134,-0.369,-1.201
-0.059,0.363,0.929,1.12,-1.68,-0.56,0.134,-0.366,-1.204
-0.052,0.38,0.924,1.75,-1.96,-1.47,0.13,-0.364,-1.201
-0.055,0.382,0.932,4.48,-2.1,-2.31,0.134,-0.365,-1.2
-0.059,0.375,0.942,7.21,-1.61,-2.8,0.134,-0.368,-1.205
-0.07,0.364,0.967,9.1,-1.12,-3.08,0.133,-0.368,-1.201
-0.072,0.368,0.97,9.45,0.84,-3.78,0.137,-0.364,-1.212
-0.065,0.371,0.969,7.56,2.59,-4.83,0.138,-0.368,-1.205
-0.053,0.354,0.958,9.03,3.78,-7.49,0.144,-0.365,-1.209
-0.032,0.31,0.98,9.52,3.64,-8.68,0.14,-0.359,-1.205
-0.025,0.285,0.984,5.67,4.83,-7.7,0.138,-0.356,-1.211
-0.021,0.278,1.015,0.0,5.88,-6.86,0.145,-0.359,-1.214
0.017,0.255,1.049,-8.05,9.24,-7.98,0.148,-0.36,-1.208
0.045,0.273,1.089,-24.71,15.68,-12.53,0.148,-0.362,-1.209
0.083,0.312,1.086,-45.01,20.37,-18.13,0.159,-0.37,-1.203
0.178,0.317,1.093,-51.87,21.49,-24.71,0.162,-0.374,-1.21
0.255,0.325,1.093,-65.8,20.51,-31.99,0.165,-0.38,-1.203
0.259,0.356,1.075,-86.17,20.02,-44.94,0.182,-0.397,-1.194
0.449,0.434,1.119,-111.65,23.52,-50.19,0.189,-0.406,-1.189
0.542,0.707,1.045,-88.2,22.4,-28.7,0.206,-0.422,-1.19
0.439,0.686,1.029,-48.44,17.08,-42.63,0.21,-0.421,-1.189
0.475,0.606,0.989,-9.03,14.0,-43.82,0.218,-0.432,-1.192
0.502,0.569,0.975,11.9,13.93,-45.22,0.234,-0.438,-1.201
0.482,0.496,0.999,21.7,15.47,-47.88,0.245,-0.436,-1.204
0.461,0.439,1.014,8.05,20.72,-49.28,0.264,-0.435,-1.206
0.463,0.497,0.946,-15.89,26.46,-53.27,0.27,-0.438,-1.21
0.488,0.574,0.875,-27.86,27.23,-57.33,0.284,-0.437,-1.205
0.514,0.577,0.844,-24.78,24.71,-59.29,0.299,-0.442,-1.211
0.508,0.533,0.817,-27.51,21.35,-62.23,0.309,-0.445,-1.205
0.458,0.423,0.784,-51.59,18.9,-63.0,0.327,-0.454,-1.208
0.431,0.453,0.748,-70.21,17.99,-60.9,0.337,-0.459,-1.206
0.401,0.575,0.712,-83.51,14.7,-59.22,0.35,-0.464,-1.194
0.352,0.639,0.684,-86.31,10.85,-58.17,0.355,-0.463,-1.19
0.307,0.591,0.686,-83.65,6.51,-56.77,0.36,-0.466,-1.185
0.291,0.55,0.648,-92.54,4.34,-57.12,0.376,-0.472,-1.173
0.288,0.553,0.602,-106.54,0.28,-57.12,0.378,-0.476,-1.169
0.267,0.625,0.551,-113.89,-6.3,-51.03,0.385,-0.482,-1.156
0.197,0.679,0.579,-96.39,-10.71,-45.64,0.396,-0.486,-1.14
0.171,0.66,0.613,-76.58,-14.28,-40.53,0.398,-0.488,-1.146
0.174,0.604,0.585,-64.05,-16.1,-36.54,0.403,-0.491,-1.132
0.2,0.499,0.595,-58.94,-18.69,-30.66,0.406,-0.492,-1.124
0.228,0.466,0.648,-58.1,-22.12,-25.62,0.408,-0.494,-1.122
0.196,0.158,0.792,-47.25,-21.35,-9.38,0.409,-0.493,-1.113
0.142,-0.066,0.85,-50.12,-10.57,19.74,0.409,-0.5,-1.114
0.071,0.052,1.181,-130.34,4.97,26.88,0.406,-0.508,-1.091
0.163,0.634,1.075,-172.62,28.84,24.01,0.405,-0.515,-1.081
0.263,1.037,0.852,-126.84,40.18,26.67,0.406,-0.519,-1.057
0.26,0.975,0.691,-37.87,38.22,46.9,0.398,-0.527,-1.054
0.233,0.702,0.586,5.46,30.66,53.48,0.399,-0.532,-1.052
0.284,0.583,0.526,3.15,16.59,62.09,0.395,-0.535,-1.055
0.245,0.599,0.532,-2.45,10.5,70.419,0.388,-0.538,-1.053
0.218,0.714,0.554,-12.53,9.73,75.879,0.377,-0.546,-1.052
0.135,1.002,0.562,-28.35,11.9,77.49,0.371,-0.552,-1.035
0.05,1.178,0.465,-17.78,17.36,73.99,0.361,-0.554,-1.036
-0.028,1.119,0.402,10.01,20.09,74.2,0.353,-0.553,-1.036
-0.143,0.99,0.415,21.98,23.45,66.29,0.349,-0.557,-1.034
-0.164,0.836,0.476,-1.68,32.27,61.879,0.338,-0.559,-1.035
-0.104,1.008,0.553,-14.63,35.14,64.61,0.329,-0.561,-1.032
-0.127,1.129,0.503,-21.21,40.39,58.87,0.325,-0.566,-1.027
-0.176,1.053,0.408,-20.37,44.52,50.47,0.323,-0.565,-1.023
-0.175,0.954,0.359,-11.48,44.31,51.379,0.319,-0.57,-1.02
-0.164,0.961,0.329,-2.87,40.39,53.62,0.314,-0.569,-1.019
-0.183,0.999,0.423,2.94,33.81,50.12,0.309,-0.567,-1.023
-0.198,0.998,0.482,32.62,26.67,47.04,0.3,-0.571,-1.021
-0.177,1.059,0.511,24.29,23.38,39.9,0.299,-0.573,-1.02
-0.185,0.944,0.53,36.4,19.6,35.14,0.292,-0.573,-1.027
-0.169,0.86,0.453,39.34,18.2,33.88,0.286,-0.573,-1.03
-0.12,0.869,0.434,30.94,15.33,29.61,0.287,-0.572,-1.032
-0.094,0.849,0.433,20.79,13.09,25.69,0.28,-0.572,-1.039
-0.05,0.924,0.425,8.12,11.69,22.75,0.278,-0.57,-1.042
-0.011,0.953,0.413,6.02,8.68,17.57,0.275,-0.574,-1.043
-0.021,0.872,0.391,2.73,6.37,15.05,0.273,-0.574,-1.035
-0.044,0.85,0.433,-5.81,2.59,12.67,0.27,-0.574,-1.041
-0.032,0.903,0.439,-14.07,2.03,12.74,0.272,-0.577,-1.036
-0.029,0.948,0.444,-14.35,1.19,14.07,0.271,-0.572,-1.03
-0.032,0.925,0.423,-8.75,1.61,13.93,0.267,-0.576,-1.031
-0.041,0.904,0.404,-6.09,0.14,10.85,0.263,-0.579,-1.03
-0.032,0.848,0.41,-1.54,-0.49,10.57,0.27,-0.579,-1.03
-0.042,0.823,0.383,-2.59,-1.4,12.18,0.265,-0.58,-1.032
-0.064,0.84,0.378,-7.84,-2.45,11.62,0.266,-0.583,-1.03
-0.06,0.808,0.359,-8.75,-3.22,10.92,0.263,-0.577,-1.031
-0.071,0.815,0.371,-12.11,-4.83,9.66,0.26,-0.579,-1.026
-0.097,0.844,0.436,-16.38,-5.25,7.14,0.262,-0.577,-1.021
-0.085,0.818,0.384,-14.49,-4.41,4.83,0.256,-0.58,-1.018
-0.096,0.782,0.355,-14.35,-5.6,2.8,0.259,-0.577,-1.019
-0.151,0.764,0.366,-14.0,-7.21,2.38,0.258,-0.578,-1.019
-0.147,0.731,0.392,-13.93,-7.49,3.64,0.254,-0.583,-1.014
-0.142,0.76,0.391,-15.33,-7.56,6.44,0.256,-0.58,-1.02
-0.12,0.822,0.403,-18.2,-8.54,5.95,0.253,-0.58,-1.013
-0.088,0.85,0.437,-11.55,-8.33,3.08,0.255,-0.579,-1.018
-0.102,0.801,0.467,-4.62,-7.84,1.89,0.253,-0.582,-1.011
-0.097,0.785,0.434,-3.85,-5.18,2.87,0.248,-0.582,-1.005
-0.11,0.801,0.378,-6.09,-4.2,2.52,0.251,-0.586,-1.013
-0.108,0.815,0.379,-9.52,-4.55,0.21,0.249,-0.582,-1.007
-0.088,0.865,0.458,-9.66,-4.76,-0.07,0.249,-0.584,-1.008
-0.064,0.87,0.483,-3.78,-3.71,-0.21,0.252,-0.585,-1.002
-0.057,0.866,0.427,3.15,-2.24,-0.56,0.247,-0.586,-1.004
-0.087,0.797,0.384,4.48,-2.45,-3.36,0.25,-0.581,-1.009
-0.122,0.788,0.395,0.91,-2.66,-2.24,0.254,-0.583,-1.005
-0.108,0.772,0.405,-5.11,-1.82,-2.17,0.251,-0.583,-1.009
-0.025,0.873,0.411,-9.66,-1.68,1.19,0.253,-0.582,-1.003
-0.069,0.857,0.407,-5.74,-1.82,-0.42,0.252,-0.581,-1.009
-0.023,0.834,0.376,-0.98,-1.61,0.63,0.252,-0.581,-1.004
-0.07,0.84,0.38,-3.92,-3.15,-1.68,0.252,-0.583,-1.001
-0.06,0.865,0.416,-2.59,-3.57,-0.14,0.252,-0.582,-1.008
-0.037,0.837,0.417,1.4,-3.15,2.03,0.25,-0.58,-1.008
-0.043,0.84,0.397,-2.59,-3.01,2.94,0.251,-0.587,-1.008
-0.042,0.903,0.403,-6.72,-3.57,1.68,0.253,-0.586,-1.003
-0.03,0.936,0.373,-6.16,-4.06,-0.28,0.246,-0.585,-0.999
-0.056,0.911,0.41,-2.38,-5.67,-2.94,0.25,-0.585,-1.0
-0.017,0.856,0.439,5.74,-5.11,-1.05,0.251,-0.582,-0.999
-0.046,0.823,0.453,7.91,-3.99,1.75,0.25,-0.589,-0.999
-0.032,0.845,0.444,5.32,-2.8,4.13,0.246,-0.589,-1.012
-0.04,0.851,0.403,1.19,-2.8,2.45,0.256,-0.583,-1.002
-0.053,0.864,0.436,-4.9,-4.41,-0.28,0.249,-0.585,-0.998
-0.058,0.888,0.444,-0.28,-4.2,-0.21,0.254,-0.587,-0.997
-0.023,0.83,0.438,4.83,-2.45,0.63,0.25,-0.586,-0.998
-0.016,0.836,0.409,0.7,-2.59,1.05,0.254,-0.587,-0.996
-0.02,0.897,0.411,-4.9,-3.22,0.28,0.25,-0.584,-1.003
-0.034,0.911,0.39,-3.15,-3.43,0.07,0.251,-0.585,-1.0
-0.032,0.872,0.375,-0.14,-3.85,-0.56,0.248,-0.584,-1.006
-0.025,0.871,0.378,-0.98,-3.85,0.28,0.248,-0.588,-1.001
-0.056,0.871,0.388,-6.02,-3.64,0.42,0.249,-0.587,-1.002
-0.012,0.9,0.395,-9.59,-3.5,0.42,0.25,-0.586,-1.003
-0.036,0.92,0.428,-8.96,-4.62,0.21,0.248,-0.582,-0.994
-0.026,0.889,0.433,-4.2,-3.71,1.54,0.247,-0.582,-0.998
-0.032,0.918,0.416,-3.29,-3.5,2.8,0.249,-0.59,-0.997
-0.054,0.916,0.408,-1.12,-3.99,2.38,0.247,-0.588,-0.995
-0.051,0.888,0.412,0.56,-4.76,2.1,0.249,-0.588,-1.0
-0.049,0.91,0.445,-1.19,-5.88,1.89,0.243,-0.587,-1.005
-0.022,0.952,0.467,1.33,-5.53,3.15,0.248,-0.587,-0.999
-0.032,0.926,0.449,8.61,-3.57,3.57,0.247,-0.586,-1.0
-0.036,0.876,0.391,6.16,-2.8,3.43,0.245,-0.585,-1.002
-0.036,0.903,0.397,-0.07,-3.01,3.15,0.243,-0.587,-1.003
-0.044,0.951,0.396,-3.71,-3.08,2.1,0.242,-0.59,-0.998
-0.047,0.932,0.416,-2.1,-3.29,1.89,0.245,-0.587,-1.003
-0.037,0.9,0.446,-1.4,-2.94,1.26,0.245,-0.591,-1.003
-0.024,0.9,0.417,-2.1,-1.82,0.56,0.244,-0.586,-0.998
-0.051,0.899,0.409,-1.54,-2.8,0.35,0.24,-0.592,-1.002
-0.067,0.897,0.403,-1.61,-2.52,-0.21,0.242,-0.585,-1.0
-0.041,0.914,0.389,-4.62,-2.59,-0.91,0.242,-0.587,-1.001
-0.036,0.945,0.368,-5.74,-2.94,-1.47,0.24,-0.585,-1.0
-0.024,0.96,0.396,-2.45,-3.85,-0.98,0.24,-0.584,-0.999
-0.026,0.933,0.408,2.03,-4.06,-0.98,0.242,-0.588,-0.998
-0.034,0.886,0.394,1.47,-4.2,-0.56,0.243,-0.59,-1.005
-0.046,0.92,0.399,-0.84,-4.55,0.21,0.24,-0.588,-1.001
-0.043,0.935,0.426,-0.28,-4.48,0.42,0.239,-0.589,-1.0
-0.037,0.913,0.43,0.56,-4.06,-0.84,0.239,-0.589,-1.004
-0.019,0.932,0.428,1.61,-4.2,-0.63,0.242,-0.585,-1.006
-0.045,0.911,0.428,6.16,-4.76,-1.61,0.243,-0.584,-1.004
-0.057,0.9,0.443,8.19,-5.04,-1.68,0.247,-0.586,-1.007
-0.038,0.861,0.431,8.96,-4.27,-1.68,0.244,-0.588,-1.002
-0.048,0.86,0.404,5.74,-3.99,-1.4,0.244,-0.586,-1.011
-0.027,0.872,0.382,3.99,-3.5,-1.47,0.247,-0.585,-1.007
-0.028,0.868,0.372,0.77,-3.57,-2.73,0.244,-0.584,-1.009
-0.027,0.882,0.388,-1.19,-4.06,-2.52,0.245,-0.586,-1.008
-0.038,0.892,0.402,-1.54,-3.85,-2.31,0.245,-0.584,-1.006
-0.023,0.878,0.406,-1.12,-3.71,-2.03,0.247,-0.589,-1.013
-0.022,0.887,0.422,-1.82,-4.34,-1.26,0.243,-0.587,-1.009
-0.033,0.912,0.439,-1.47,-4.69,-0.35,0.244,-0.586,-1.011
-0.046,0.915,0.424,0.21,-4.27,0.21,0.247,-0.586,-1.007
-0.05,0.899,0.393,1.89,-4.97,-0.28,0.243,-0.585,-1.008
-0.044,0.889,0.42,2.24,-5.39,-0.28,0.245,-0.588,-1.017
-0.022,0.875,0.439,1.82,-5.18,0.49,0.242,-0.585,-1.01
-0.031,0.892,0.448,0.98,-4.83,1.61,0.243,-0.584,-1.008
-0.018,0.899,0.449,3.64,-4.48,2.8,0.245,-0.582,-1.008
-0.015,0.879,0.444,4.83,-4.62,2.52,0.245,-0.586,-1.004
-0.048,0.86,0.421,2.66,-4.97,1.47,0.243,-0.582,-1.008
-0.058,0.862,0.422,-2.24,-4.76,0.91,0.245,-0.585,-1.011
-0.056,0.924,0.424,-2.52,-4.83,0.84,0.246,-0.587,-1.006
-0.063,0.945,0.422,0.49,-4.76,0.49,0.243,-0.588,-1.009
-0.064,0.915,0.432,4.48,-4.41,-0.56,0.245,-0.586,-1.008
-0.053,0.858,0.418,4.55,-3.5,-1.26,0.244,-0.587,-1.005
-0.05,0.88,0.414,-0.35,-3.15,-0.7,0.243,-0.584,-1.001
-0.059,0.89,0.404,-2.03,-3.5,-0.91,0.244,-0.587,-1.002
-0.068,0.87,0.413,-0.84,-3.43,-0.77,0.243,-0.586,-1.002
-0.066,0.856,0.412,-0.98,-3.22,-0.35,0.242,-0.577,-1.003
-0.056,0.886,0.428,-2.24,-3.78,0.0,0.248,-0.589,-1.003
-0.055,0.878,0.434,-1.75,-3.71,-0.77,0.248,-0.583,-1.008
-0.036,0.861,0.419,-1.54,-3.43,0.14,0.243,-0.585,-1.009
-0.049,0.883,0.409,-1.89,-4.13,0.84,0.244,-0.582,-1.015
-0.07,0.897,0.409,-0.07,-4.41,1.19,0.243,-0.578,-1.008
-0.073,0.894,0.408,1.82,-4.27,1.12,0.241,-0.58,-1.006
-0.063,0.853,0.417,2.38,-4.97,1.19,0.244,-0.581,-1.007
-0.058,0.889,0.437,-0.49,-4.69,1.33,0.237,-0.579,-1.002
-0.082,0.883,0.415,2.52,-4.13,1.05,0.24,-0.582,-1.003
-0.072,0.849,0.398,2.17,-3.43,1.05,0.244,-0.582,-1.002
-0.082,0.886,0.395,-0.91,-3.64,1.33,0.242,-0.581,-1.007
-0.082,0.867,0.387,-0.21,-3.5,0.7,0.242,-0.585,-1.007
-0.071,0.869,0.4,-1.47,-3.99,0.49,0.243,-0.58,-1.008
-0.078,0.88,0.403,-1.19,-4.13,0.28,0.237,-0.585,-1.012
-0.09,0.879,0.409,1.82,-4.13,0.07,0.236,-0.584,-1.008
-0.089,0.875,0.391,2.8,-4.97,-1.33,0.239,-0.582,-1.004
-0.103,0.885,0.397,2.87,-6.3,-3.92,0.238,-0.583,-1.012
-0.103,0.847,0.423,3.71,-7.14,-6.72,0.24,-0.587,-1.009
-0.085,0.857,0.405,3.22,-8.33,-9.31,0.244,-0.583,-1.003
-0.077,0.855,0.375,5.81,-10.99,-11.76,0.245,-0.58,-1.01
-0.079,0.84,0.396,8.54,-14.21,-14.35,0.247,-0.585,-1.008
-0.1,0.852,0.432,7.91,-16.45,-16.94,0.25,-0.585,-1.007
-0.114,0.816,0.428,10.01,-16.45,-18.69,0.251,-0.583,-1.013
-0.074,0.84,0.39,9.1,-17.01,-18.9,0.252,-0.581,-1.014
-0.072,0.775,0.396,13.02,-18.27,-18.9,0.257,-0.586,-1.013
-0.063,0.693,0.388,15.68,-16.59,-13.51,0.259,-0.582,-1.016
-0.034,0.731,0.316,3.92,-15.68,-4.62,0.259,-0.58,-1.023
-0.058,0.862,0.282,-0.77,-15.68,-2.1,0.254,-0.58,-1.018
-0.081,0.917,0.312,-6.65,-17.08,-4.27,0.256,-0.587,-1.018
-0.104,0.851,0.401,-6.02,-15.82,-4.9,0.257,-0.581,-1.016
-0.087,0.836,0.433,-10.64,-12.53,-2.94,0.256,-0.584,-1.02
-0.09,0.897,0.433,-18.34,-11.06,-2.52,0.256,-0.583,-1.015
-0.098,0.97,0.404,-18.27,-10.92,-2.59,0.255,-0.587,-1.013
-0.129,1.035,0.365,-11.41,-16.1,-10.15,0.258,-0.583,-1.016
-0.168,1.019,0.423,-6.44,-21.84,-20.51,0.26,-0.583,-1.008
-0.193,0.927,0.505,1.05,-23.31,-27.51,0.263,-0.588,-1.009
-0.16,0.873,0.498,4.48,-22.4,-29.54,0.266,-0.585,-1.016
-0.129,0.879,0.481,1.75,-23.24,-31.92,0.27,-0.585,-1.014
-0.148,0.917,0.449,-0.98,-24.92,-37.94,0.272,-0.583,-1.012
-0.158,0.966,0.412,-1.75,-27.86,-43.19,0.284,-0.578,-1.014
-0.145,0.941,0.381,2.45,-30.52,-48.16,0.283,-0.58,-1.013
-0.116,0.9,0.391,7.98,-33.11,-48.79,0.292,-0.577,-1.021
-0.079,0.876,0.396,12.32,-34.65,-47.18,0.3,-0.577,-1.021
-0.07,0.862,0.413,14.77,-34.86,-45.29,0.302,-0.572,-1.024
-0.067,0.839,0.417,14.0,-33.39,-44.66,0.309,-0.574,-1.029
-0.064,0.831,0.434,11.48,-31.15,-43.26,0.313,-0.57,-1.035
-0.04,0.839,0.404,15.33,-29.19,-40.67,0.314,-0.573,-1.035
-0.047,0.836,0.431,35.35,-27.44,-34.72,0.32,-0.568,-1.046
-0.004,0.854,0.47,54.74,-26.74,-27.09,0.326,-0.567,-1.041
0.042,0.811,0.484,73.01,-26.53,-21.35,0.327,-0.564,-1.056
0.018,0.741,0.543,71.75,-25.48,-17.99,0.329,-0.559,-1.07
-0.013,0.752,0.563,56.56,-23.52,-16.52,0.332,-0.557,-1.076
0.006,0.83,0.542,44.8,-21.77,-16.1,0.33,-0.558,-1.081
0.021,0.88,0.517,43.68,-21.35,-16.8,0.334,-0.554,-1.09
-0.009,0.872,0.568,65.45,-20.44,-13.65,0.333,-0.546,-1.093
0.015,0.859,0.602,75.95,-18.06,-15.47,0.337,-0.548,-1.098
0.006,0.755,0.636,87.5,-15.96,-13.93,0.334,-0.539,-1.113
0.023,0.685,0.632,87.5,-14.35,-10.43,0.335,-0.538,-1.125
0.028,0.684,0.633,77.7,-14.14,-9.73,0.334,-0.537,-1.128
-0.035,0.783,0.639,60.34,-13.44,-14.56,0.336,-0.53,-1.137
-0.015,0.804,0.629,62.3,-13.65,-16.38,0.338,-0.529,-1.144
0.04,0.823,0.681,74.48,-16.17,-14.21,0.342,-0.517,-1.163
0.051,0.824,0.718,88.899,-17.71,-13.79,0.344,-0.512,-1.162
0.015,0.792,0.719,101.36,-17.99,-15.12,0.344,-0.511,-1.173
-0.036,0.762,0.7,111.23,-17.71,-16.52,0.343,-0.497,-1.192
-0.06,0.695,0.692,114.52,-15.82,-19.53,0.344,-0.489,-1.196
-0.054,0.62,0.679,107.03,-13.79,-21.63,0.344,-0.475,-1.215
-0.005,0.58,0.701,81.34,-12.88,-22.47,0.342,-0.468,-1.216
0.035,0.602,0.739,66.29,-13.37,-22.33,0.346,-0.463,-1.224
-0.019,0.656,0.781,58.45,-12.6,-23.8,0.35,-0.455,-1.232
-0.075,0.669,0.789,54.95,-8.26,-26.04,0.354,-0.447,-1.231
-0.101,0.679,0.786,58.24,-5.39,-23.31,0.351,-0.439,-1.248
-0.063,0.635,0.751,62.58,-3.64,-20.37,0.354,-0.431,-1.249
0.02,0.562,0.759,68.879,-5.39,-17.15,0.355,-0.428,-1.255
0.042,0.52,0.823,70.629,-12.67,-10.5,0.355,-0.418,-1.263
-0.044,0.497,0.893,68.389,-9.8,-10.08,0.357,-0.409,-1.263
-0.156,0.395,0.857,61.179,-4.55,-7.91,0.353,-0.404,-1.264
-0.114,0.326,0.822,51.45,-2.24,-1.68,0.349,-0.395,-1.271
0.008,0.271,0.819,42.21,-0.98,6.09,0.352,-0.393,-1.276
0.116,0.244,0.932,35.42,-5.25,10.15,0.347,-0.389,-1.281
0.14,0.231,0.999,27.86,-8.47,12.81,0.345,-0.388,-1.279
0.087,0.221,0.98,24.78,-7.98,16.38,0.339,-0.385,-1.279
0.042,0.196,0.88,22.12,-6.65,21.28,0.338,-0.385,-1.281
0.071,0.205,0.82,20.93,-9.8,30.38,0.337,-0.382,-1.282
0.165,0.205,0.859,24.71,-14.42,34.79,0.332,-0.384,-1.287
0.267,0.167,1.036,38.15,-18.9,35.42,0.325,-0.382,-1.287
0.205,0.075,1.041,46.27,-16.8,35.98,0.32,-0.373,-1.288
0.111,0.019,0.928,37.8,-12.74,39.97,0.312,-0.367,-1.297
0.085,0.063,0.78,19.25,-10.22,47.18,0.307,-0.368,-1.292
0.126,0.138,0.796,10.64,-14.21,53.27,0.302,-0.37,-1.296
0.198,0.165,0.943,12.18,-21.77,59.71,0.291,-0.371,-1.29
0.239,0.112,1.083,13.09,-25.41,62.44,0.283,-0.372,-1.294
0.249,0.067,1.099,-6.72,-19.53,62.929,0.266,-0.366,-1.294
0.186,0.132,1.0,-23.31,-15.75,67.69,0.261,-0.373,-1.293
0.188,0.24,0.991,-31.15,-13.23,72.94,0.255,-0.376,-1.287
0.279,0.319,1.076,-28.77,-14.28,75.81,0.246,-0.383,-1.277
0.323,0.357,1.219,-11.83,-16.17,77.07,0.237,-0.383,-1.277
0.267,0.353,1.26,2.52,-10.22,73.429,0.223,-0.378,-1.267
0.187,0.311,1.196,5.74,-1.68,68.11,0.216,-0.38,-1.263
0.179,0.321,1.099,-5.74,7.28,64.96,0.209,-0.382,-1.264
0.204,0.378,1.041,-19.6,13.37,59.919,0.194,-0.383,-1.252
0.21,0.441,1.023,-23.24,12.39,48.58,0.195,-0.381,-1.249
0.179,0.379,1.099,-9.87,11.76,41.58,0.188,-0.38,-1.247
0.192,0.247,1.06,-9.03,13.09,36.82,0.186,-0.384,-1.237
0.231,0.24,0.988,-25.97,15.96,33.53,0.18,-0.381,-1.229
0.224,0.356,0.949,-36.4,17.15,31.64,0.17,-0.382,-1.22
0.197,0.421,0.96,-27.37,13.16,29.19,0.166,-0.379,-1.216
0.188,0.372,0.964,-4.41,7.56,23.8,0.162,-0.373,-1.209
0.149,0.292,0.96,0.91,5.18,22.89,0.155,-0.377,-1.206
0.118,0.289,0.947,-0.63,3.85,22.96,0.149,-0.368,-1.201
0.11,0.324,0.981,-3.57,3.29,24.71,0.146,-0.369,-1.194
0.115,0.402,1.021,-1.47,2.03,27.51,0.139,-0.369,-1.19
0.103,0.439,1.051,1.89,1.54,22.96,0.134,-0.364,-1.19
0.091,0.443,1.053,5.32,0.84,12.81,0.125,-0.36,-1.183
0.083,0.416,1.054,14.0,-0.63,8.89,0.126,-0.362,-1.184
0.048,0.357,1.044,11.13,0.35,4.62,0.123,-0.357,-1.18
0.024,0.346,1.021,1.47,3.71,0.49,0.122,-0.354,-1.182
0.027,0.346,0.976,-4.48,6.02,-1.68,0.118,-0.354,-1.177
0.026,0.32,0.901,-3.71,5.53,-1.33,0.124,-0.357,-1.176
0.008,0.28,0.839,-0.35,3.08,0.77,0.119,-0.351,-1.182
-0.003,0.238,0.815,-3.57,-3.08,5.32,0.123,-0.355,-1.178
-0.018,0.273,0.868,-10.36,-6.44,9.17,0.121,-0.353,-1.184
-0.013,0.431,0.983,-1.61,-9.73,9.94,0.113,-0.347,-1.179
-0.08,0.51,1.084,9.03,-14.21,16.38,0.112,-0.346,-1.18
-0.117,0.47,1.036,15.96,-10.78,5.46,0.112,-0.344,-1.184
-0.075,0.382,1.013,15.96,-12.25,-3.36,0.114,-0.344,-1.191
-0.072,0.26,0.877,13.16,-7.35,-11.41,0.112,-0.343,-1.186
-0.052,0.26,0.91,5.67,-9.03,-9.8,0.107,-0.345,-1.19
-0.073,0.283,0.942,0.07,-10.5,-9.52,0.11,-0.344,-1.189
-0.068,0.336,0.961,-0.14,-9.94,-7.28,0.111,-0.345,-1.197
-0.081,0.351,0.973,4.2,-10.22,-6.37,0.109,-0.339,-1.198
-0.077,0.339,0.983,7.35,-9.66,-4.9,0.109,-0.334,-1.197
-0.073,0.311,0.98,2.24,-5.18,-5.25,0.112,-0.336,-1.2
-0.057,0.299,0.949,-2.1,-2.73,-5.74,0.11,-0.339,-1.199
-0.06,0.303,0.928,-2.87,-3.08,-3.92,0.115,-0.337,-1.196
-0.045,0.323,0.935,-1.61,-4.13,-0.91,0.115,-0.337,-1.194
-0.057,0.312,0.933,-1.12,-3.29,-2.45,0.115,-0.343,-1.196
-0.059,0.323,0.938,-2.45,-3.22,-1.68,0.114,-0.34,-1.197
-0.059,0.332,0.937,-3.22,-3.22,-2.17,0.116,-0.337,-1.195
-0.063,0.348,0.933,-3.29,-3.57,-1.75,0.111,-0.34,-1.192
-0.066,0.347,0.922,-1.89,-3.22,-2.17,0.117,-0.342,-1.191
-0.064,0.349,0.935,1.05,-4.69,-1.05,0.116,-0.342,-1.195
-0.062,0.339,0.937,2.45,-5.04,-0.98,0.112,-0.344,-1.193
-0.063,0.333,0.941,1.96,-4.06,-1.47,0.112,-0.344,-1.191
-0.064,0.328,0.944,1.82,-4.13,-1.61,0.112,-0.344,-1.195
-0.065,0.317,0.944,1.33,-3.99,-1.19,0.114,-0.344,-1.192
-0.067,0.313,0.951,0.28,-3.43,-0.77,0.117,-0.341,-1.201
-0.064,0.322,0.945,-0.42,-3.15,-0.49,0.112,-0.342,-1.192
-0.067,0.327,0.946,0.35,-3.08,0.07,0.112,-0.342,-1.193
-0.069,0.325,0.95,1.12,-2.94,0.28,0.113,-0.341,-1.196
-0.068,0.315,0.952,0.98,-2.73,0.35,0.11,-0.343,-1.195
-0.066,0.32,0.945,-0.35,-2.31,0.49,0.112,-0.342,-1.194
-0.063,0.326,0.94,-1.12,-1.96,0.28,0.112,-0.341,-1.194
-0.061,0.332,0.937,-1.4,-2.1,0.14,0.111,-0.338,-1.198
-0.063,0.331,0.938,-1.68,-1.96,0.07,0.112,-0.342,-1.19
-0.063,0.339,0.935,-1.26,-2.31,0.0,0.11,-0.339,-1.194
-0.06,0.342,0.935,0.35,-2.38,-0.07,0.109,-0.341,-1.193
-0.06,0.341,0.935,1.47,-2.45,-0.35,0.114,-0.34,-1.188
-0.06,0.339,0.936,2.66,-2.8,-0.28,0.116,-0.342,-1.187
-0.062,0.331,0.94,3.71,-3.08,-0.35,0.109,-0.343,-1.193
-0.064,0.318,0.944,3.22,-3.08,-0.21,0.113,-0.344,-1.193
-0.064,0.313,0.945,2.52,-2.87,-0.7,0.11,-0.341,-1.197
-0.064,0.311,0.945,1.4,-2.73,-0.84,0.114,-0.341,-1.197
-0.06,0.312,0.943,0.14,-2.8,-0.98,0.115,-0.341,-1.195
-0.06,0.321,0.939,-1.05,-2.73,-1.19,0.115,-0.343,-1.197
-0.057,0.325,0.938,-1.47,-2.73,-1.19,0.113,-0.342,-1.196
-0.057,0.329,0.937,-1.33,-3.15,-0.63,0.117,-0.344,-1.196
