ax,ay,az,gx,gy,gz,mx,my,mz
-0.955,0.274,0.069,4.83,-2.66,-0.91,-0.184,-0.344,-0.881
-0.951,0.279,0.07,5.81,-3.22,-0.28,-0.181,-0.345,-0.884
-0.949,0.282,0.071,7.56,-3.85,0.63,-0.185,-0.345,-0.881
-0.947,0.285,0.074,8.82,-4.62,1.54,-0.187,-0.347,-0.882
-0.944,0.289,0.077,10.43,-4.97,2.66,-0.183,-0.344,-0.877
-0.942,0.302,0.076,11.13,-5.95,3.43,-0.182,-0.343,-0.886
-0.947,0.304,0.08,-3.43,-7.0,0.77,-0.181,-0.348,-0.883
-0.943,0.327,0.058,-30.31,-10.22,-5.04,-0.184,-0.347,-0.882
-0.954,0.514,0.181,-33.18,-22.4,-8.89,-0.185,-0.345,-0.877
-0.974,0.731,0.343,-11.06,-29.33,-3.85,-0.181,-0.343,-0.879
-0.921,0.873,0.394,34.37,-20.79,4.34,-0.183,-0.343,-0.879
-0.818,0.823,0.239,106.33,-18.41,1.61,-0.183,-0.345,-0.879
-0.873,0.68,0.22,123.48,-25.06,-5.25,-0.177,-0.353,-0.884
-0.955,0.676,0.387,95.2,-10.71,-19.67,-0.18,-0.36,-0.895
-0.884,0.767,0.406,47.18,13.09,-35.21,-0.175,-0.363,-0.899
-0.787,0.967,0.385,7.0,22.68,-47.11,-0.171,-0.363,-0.903
-0.752,1.107,0.345,-5.04,19.95,-61.18,-0.17,-0.377,-0.903
-0.875,1.228,0.326,20.3,15.33,-83.02,-0.165,-0.385,-0.909
-0.965,1.225,0.268,48.58,17.08,-97.23,-0.153,-0.401,-0.924
-1.017,1.127,0.234,70.21,19.74,-110.18,-0.152,-0.409,-0.927
-1.04,0.984,0.182,79.87,23.17,-119.98,-0.136,-0.435,-0.941
-1.079,0.858,0.111,78.679,24.92,-126.91,-0.126,-0.447,-0.945
-1.137,0.739,0.052,68.32,26.81,-138.81,-0.114,-0.457,-0.952
-1.151,0.615,0.038,39.62,35.98,-148.05,-0.1,-0.475,-0.962
-1.032,0.493,0.074,13.79,42.07,-158.2,-0.088,-0.484,-0.97
-0.927,0.442,0.069,-7.84,41.16,-172.2,-0.06,-0.499,-0.977
-0.862,0.425,0.117,-23.66,35.77,-186.55,-0.044,-0.515,-0.973
-0.852,0.438,0.167,-33.32,32.62,-197.89,-0.032,-0.531,-0.973
-0.875,0.484,0.18,-35.21,32.2,-205.59,0.007,-0.542,-0.969
-0.928,0.585,0.158,-4.83,36.19,-210.63,0.025,-0.549,-0.967
-1.017,0.769,0.085,7.28,41.02,-212.17,0.067,-0.565,-0.969
-1.03,0.81,0.039,37.03,42.14,-213.29,0.084,-0.57,-0.974
-1.008,0.693,0.013,73.08,39.76,-212.17,0.12,-0.574,-0.987
-1.174,0.548,0.352,101.08,46.13,-201.88,0.146,-0.574,-1.0
-1.187,0.254,0.634,21.42,114.1,-198.66,0.186,-0.58,-1.008
-0.65,0.499,0.646,-26.46,81.83,-223.58,0.203,-0.572,-1.005
-0.576,0.843,0.505,-52.22,80.5,-266.14,0.228,-0.577,-0.999
-0.481,1.09,0.236,-31.15,79.169,-288.12,0.281,-0.568,-0.993
-0.422,1.314,0.048,25.2,68.25,-284.48,0.306,-0.563,-0.996
-0.381,1.397,-0.021,90.23,55.72,-273.28,0.359,-0.544,-1.007
-0.331,1.321,-0.135,143.01,41.86,-250.74,0.379,-0.532,-1.022
-0.247,0.956,-0.127,175.49,35.07,-244.72,0.4,-0.522,-1.03
-0.133,0.739,-0.14,186.13,19.74,-238.7,0.443,-0.494,-1.054
-0.058,0.603,-0.128,195.51,12.18,-232.96,0.459,-0.472,-1.067
-0.018,0.485,-0.126,194.53,14.14,-227.01,0.491,-0.434,-1.089
-0.021,0.416,0.036,186.13,11.76,-220.01,0.509,-0.412,-1.098
0.083,0.393,0.138,158.76,4.48,-213.92,0.527,-0.37,-1.111
0.21,0.305,0.193,152.67,-4.69,-204.821,0.536,-0.349,-1.119
0.269,0.254,0.292,145.95,-11.41,-190.75,0.548,-0.311,-1.135
0.362,0.233,0.432,139.37,-10.78,-178.78,0.55,-0.287,-1.132
0.433,0.114,0.538,132.65,-11.62,-171.92,0.554,-0.268,-1.145
0.474,0.035,0.648,133.14,-6.58,-156.38,0.56,-0.228,-1.146
0.536,-0.038,0.651,139.09,-4.76,-144.13,0.564,-0.208,-1.145
0.591,-0.098,0.652,139.23,-4.34,-130.34,0.564,-0.178,-1.15
0.668,-0.205,0.643,122.99,-5.6,-120.47,0.563,-0.155,-1.141
0.731,-0.321,0.633,101.01,-8.68,-110.67,0.562,-0.127,-1.144
0.72,-0.41,0.675,70.49,-14.42,-93.8,0.562,-0.117,-1.15
0.693,-0.412,0.733,53.76,-18.97,-83.86,0.555,-0.097,-1.152
0.708,-0.406,0.787,42.56,-22.54,-76.72,0.549,-0.086,-1.146
0.722,-0.442,0.858,35.84,-27.3,-70.35,0.544,-0.081,-1.156
0.73,-0.435,0.847,30.38,-27.86,-60.2,0.542,-0.068,-1.148
0.752,-0.394,0.726,19.74,-28.56,-48.65,0.538,-0.061,-1.154
0.762,-0.411,0.7,14.14,-33.88,-44.52,0.536,-0.056,-1.157
0.702,-0.463,0.799,12.81,-42.14,-40.88,0.529,-0.049,-1.159
0.634,-0.452,0.891,14.21,-44.59,-34.37,0.527,-0.041,-1.168
0.614,-0.391,0.948,17.92,-42.42,-30.38,0.524,-0.034,-1.169
0.613,-0.344,0.961,27.02,-35.28,-24.64,0.524,-0.03,-1.17
0.612,-0.36,0.912,48.3,-29.61,-19.95,0.518,-0.02,-1.17
0.599,-0.444,0.864,53.899,-25.41,-15.82,0.519,-0.021,-1.172
0.566,-0.521,0.843,47.46,-21.14,-10.99,0.512,-0.016,-1.178
0.532,-0.555,0.836,29.96,-15.12,-7.07,0.511,-0.017,-1.179
0.519,-0.518,0.833,0.98,-5.81,-5.32,0.509,-0.009,-1.174
0.528,-0.413,0.8,-10.71,-2.03,-5.95,0.511,-0.011,-1.176
0.537,-0.374,0.782,-13.86,-1.19,-5.39,0.509,-0.01,-1.176
0.53,-0.364,0.774,-10.01,-1.47,-4.62,0.507,-0.008,-1.175
0.528,-0.361,0.766,-6.44,-2.38,-3.43,0.507,-0.012,-1.175
0.522,-0.371,0.765,-3.99,-3.5,-2.52,0.51,-0.01,-1.178
0.499,-0.372,0.777,-4.2,-4.76,-2.59,0.511,-0.009,-1.182
0.491,-0.361,0.777,-4.48,-4.76,-2.52,0.513,-0.01,-1.178
0.487,-0.348,0.763,-3.57,-5.18,-2.03,0.509,-0.014,-1.18
0.485,-0.335,0.743,-1.75,-6.02,-0.91,0.511,-0.011,-1.178
0.481,-0.346,0.756,-1.26,-8.12,-0.91,0.51,-0.013,-1.182
0.474,-0.351,0.776,-1.75,-8.33,-0.42,0.508,-0.012,-1.185
0.474,-0.34,0.787,-3.01,-7.98,0.35,0.507,-0.009,-1.185
0.477,-0.332,0.782,-3.08,-7.42,0.84,0.505,-0.012,-1.181
0.484,-0.328,0.772,-1.19,-7.14,1.61,0.508,-0.012,-1.181
0.491,-0.33,0.773,0.0,-6.86,3.08,0.506,-0.017,-1.178
0.492,-0.329,0.77,0.07,-6.65,3.29,0.508,-0.014,-1.181
0.486,-0.325,0.776,-1.75,-6.65,3.43,0.506,-0.016,-1.18
0.491,-0.32,0.789,-4.76,-6.02,2.52,0.507,-0.015,-1.183
0.492,-0.316,0.802,-7.14,-5.25,1.4,0.505,-0.014,-1.18
0.493,-0.31,0.804,-7.91,-3.85,0.21,0.51,-0.018,-1.184
0.499,-0.313,0.793,-7.56,-3.43,-0.91,0.507,-0.017,-1.185
0.509,-0.319,0.782,-7.84,-2.87,-1.12,0.503,-0.018,-1.185
0.515,-0.325,0.777,-10.85,-2.87,-1.75,0.507,-0.018,-1.192
0.522,-0.321,0.762,-15.96,-1.75,-1.33,0.507,-0.02,-1.189
0.532,-0.315,0.756,-23.8,-0.7,-1.89,0.505,-0.014,-1.185
0.526,-0.325,0.774,-33.04,2.17,-2.24,0.502,-0.019,-1.192
0.501,-0.326,0.819,-42.42,2.38,-2.31,0.507,-0.025,-1.193
0.488,-0.3,0.851,-42.35,2.73,-0.91,0.509,-0.028,-1.198
0.491,-0.272,0.844,-36.19,3.15,0.49,0.51,-0.035,-1.198
0.495,-0.251,0.834,-27.44,3.29,1.75,0.511,-0.036,-1.196
0.496,-0.243,0.827,-19.74,3.5,2.59,0.512,-0.041,-1.197
0.497,-0.248,0.827,-13.51,3.36,2.31,0.514,-0.041,-1.193
0.495,-0.261,0.832,-7.77,2.66,1.26,0.512,-0.04,-1.194
0.495,-0.273,0.825,-5.67,2.94,1.26,0.513,-0.038,-1.192
0.499,-0.263,0.816,-4.55,2.52,1.33,0.518,-0.042,-1.188
0.496,-0.262,0.811,-4.48,1.89,1.05,0.512,-0.039,-1.192
0.49,-0.252,0.805,-3.64,1.05,1.96,0.51,-0.041,-1.192
0.499,-0.248,0.793,-3.99,-0.42,2.87,0.514,-0.04,-1.194
0.507,-0.248,0.79,-4.55,-1.26,3.78,0.512,-0.044,-1.188
0.503,-0.248,0.79,-5.39,-1.89,4.06,0.515,-0.046,-1.2
0.505,-0.244,0.788,-6.72,-2.52,4.55,0.514,-0.043,-1.193
0.508,-0.238,0.795,-7.07,-3.29,4.69,0.514,-0.045,-1.192
0.513,-0.232,0.796,-7.7,-4.48,4.62,0.513,-0.046,-1.194
0.516,-0.23,0.797,-7.98,-5.18,4.27,0.513,-0.047,-1.193
0.518,-0.229,0.799,-8.68,-5.88,4.06,0.517,-0.05,-1.197
0.52,-0.229,0.808,-9.52,-6.51,4.2,0.514,-0.051,-1.198
0.526,-0.224,0.809,-8.75,-6.65,4.62,0.513,-0.05,-1.192
0.524,-0.22,0.819,-7.35,-7.35,4.41,0.509,-0.057,-1.193
0.52,-0.216,0.819,-5.74,-7.21,4.69,0.512,-0.058,-1.199
0.515,-0.211,0.819,-4.48,-6.51,5.18,0.512,-0.057,-1.205
0.511,-0.209,0.818,-4.9,-5.74,4.83,0.512,-0.056,-1.201
0.51,-0.205,0.823,-5.67,-4.97,4.69,0.515,-0.056,-1.199
0.504,-0.196,0.828,-6.23,-4.13,5.11,0.516,-0.055,-1.204
0.499,-0.189,0.825,-5.74,-3.5,5.04,0.511,-0.06,-1.201
0.503,-0.188,0.824,-4.34,-3.08,4.9,0.51,-0.061,-1.2
0.505,-0.193,0.826,-3.64,-2.31,4.69,0.515,-0.066,-1.197
0.51,-0.184,0.825,-4.34,-1.96,4.69,0.513,-0.065,-1.203
0.514,-0.177,0.826,-4.48,-2.03,4.41,0.51,-0.064,-1.198
0.515,-0.173,0.826,-3.43,-2.03,4.34,0.509,-0.064,-1.192
0.514,-0.173,0.819,-2.31,-2.59,4.13,0.511,-0.067,-1.197
0.514,-0.18,0.817,-2.24,-2.73,3.01,0.512,-0.065,-1.196
0.515,-0.18,0.822,-3.22,-3.15,1.96,0.509,-0.065,-1.2
0.515,-0.177,0.825,-3.71,-3.5,0.84,0.511,-0.066,-1.197
0.517,-0.171,0.827,-3.43,-3.71,0.35,0.514,-0.069,-1.204
0.517,-0.168,0.83,-3.01,-3.99,-0.35,0.513,-0.068,-1.199
0.516,-0.166,0.824,-3.08,-4.55,-1.19,0.513,-0.068,-1.212
0.513,-0.166,0.817,-3.57,-4.62,-1.96,0.518,-0.068,-1.207
0.513,-0.166,0.821,-3.36,-4.69,-2.94,0.513,-0.071,-1.202
0.513,-0.163,0.824,-1.75,-4.76,-3.57,0.515,-0.07,-1.2
0.511,-0.163,0.821,0.49,-4.48,-4.2,0.519,-0.07,-1.204
0.507,-0.17,0.824,2.8,-4.48,-4.48,0.513,-0.069,-1.204
0.505,-0.183,0.827,5.6,-4.13,-4.27,0.513,-0.063,-1.199
0.503,-0.19,0.825,6.58,-3.57,-3.99,0.513,-0.064,-1.199
0.502,-0.193,0.818,6.3,-3.15,-3.71,0.513,-0.061,-1.195
0.5,-0.201,0.817,5.04,-2.45,-3.64,0.513,-0.061,-1.202
0.5,-0.204,0.818,3.43,-2.03,-3.29,0.511,-0.061,-1.201
0.5,-0.203,0.818,2.17,-1.47,-2.24,0.513,-0.064,-1.202
0.499,-0.201,0.814,2.17,-1.12,-1.54,0.509,-0.062,-1.198
0.5,-0.198,0.809,2.31,-0.84,-1.05,0.51,-0.065,-1.2
0.498,-0.205,0.807,2.17,-0.98,-1.05,0.515,-0.061,-1.199
0.5,-0.205,0.806,1.33,-1.26,-0.63,0.512,-0.064,-1.203
0.501,-0.205,0.816,0.49,-1.33,-0.21,0.514,-0.061,-1.199
0.505,-0.203,0.823,0.42,-1.68,0.07,0.516,-0.063,-1.198
0.52,-0.218,0.845,0.91,-1.89,0.7,0.51,-0.057,-1.197
0.533,-0.23,0.875,0.35,-2.03,2.1,0.515,-0.06,-1.194
0.549,-0.232,0.9,-1.89,-2.31,4.2,0.512,-0.062,-1.193
0.568,-0.239,0.932,-3.78,-2.87,6.86,0.516,-0.065,-1.195
0.601,-0.253,0.972,-4.76,-2.87,11.13,0.518,-0.062,-1.197
0.636,-0.276,1.03,-7.91,-2.73,14.21,0.516,-0.071,-1.195
0.653,-0.277,1.042,-10.64,-2.52,17.64,0.517,-0.069,-1.198
0.666,-0.283,1.06,-13.23,-3.01,20.51,0.516,-0.074,-1.196
0.66,-0.302,1.081,-14.7,-3.71,23.73,0.515,-0.076,-1.203
0.653,-0.316,1.078,-19.67,-3.92,27.72,0.517,-0.082,-1.193
0.636,-0.327,1.081,-28.98,-3.92,30.94,0.519,-0.087,-1.197
0.597,-0.314,1.022,-43.47,-2.17,39.97,0.521,-0.091,-1.203
0.555,-0.337,0.976,-52.43,0.63,46.83,0.52,-0.107,-1.198
0.524,-0.34,0.907,-54.81,3.99,56.98,0.521,-0.114,-1.198
0.514,-0.33,0.847,-59.71,6.16,67.06,0.526,-0.128,-1.198
0.507,-0.33,0.809,-67.13,7.7,76.44,0.525,-0.137,-1.202
0.498,-0.316,0.773,-86.8,14.56,91.84,0.526,-0.152,-1.2
0.46,-0.225,0.685,-106.12,20.02,101.64,0.528,-0.179,-1.194
0.443,-0.124,0.641,-124.04,23.03,112.21,0.529,-0.189,-1.195
0.426,-0.026,0.615,-141.05,24.43,123.83,0.534,-0.224,-1.191
0.41,0.071,0.549,-153.09,22.75,134.19,0.527,-0.243,-1.181
0.413,0.175,0.522,-160.86,18.34,139.86,0.525,-0.279,-1.175
0.368,0.331,0.503,-153.93,15.61,143.5,0.524,-0.307,-1.166
0.333,0.505,0.48,-142.73,15.12,148.54,0.521,-0.32,-1.158
0.317,0.636,0.442,-132.37,11.55,150.36,0.512,-0.358,-1.145
0.326,0.616,0.424,-119.21,6.23,151.06,0.503,-0.378,-1.142
0.315,0.507,0.466,-102.62,1.12,152.67,0.497,-0.403,-1.129
0.26,0.465,0.469,-97.86,0.77,156.66,0.483,-0.417,-1.125
0.167,0.563,0.442,-112.84,1.54,164.43,0.469,-0.433,-1.117
0.063,0.824,0.294,-160.23,1.61,160.79,0.456,-0.464,-1.105
0.053,0.907,0.221,-171.85,-0.91,149.52,0.446,-0.482,-1.091
0.085,0.885,0.203,-161.7,-1.19,138.74,0.427,-0.504,-1.059
0.105,0.821,0.222,-143.92,-1.82,133.91,0.414,-0.513,-1.052
0.06,0.793,0.237,-131.321,-1.82,135.45,0.392,-0.528,-1.029
-0.057,0.89,0.208,-134.75,1.05,133.28,0.382,-0.537,-1.016
-0.122,0.98,0.188,-138.46,4.48,127.68,0.369,-0.545,-0.994
-0.147,1.019,0.156,-132.51,8.4,121.8,0.344,-0.554,-0.98
-0.136,1.012,0.124,-111.65,10.71,119.56,0.335,-0.558,-0.97
-0.136,1.003,0.114,-85.96,9.8,121.38,0.313,-0.563,-0.948
-0.14,0.993,0.1,-48.02,6.44,120.26,0.302,-0.567,-0.95
-0.183,0.916,0.149,-24.15,3.57,124.74,0.279,-0.57,-0.94
-0.21,0.873,0.173,-0.63,3.92,131.46,0.27,-0.576,-0.942
-0.235,0.854,0.155,17.5,1.89,135.38,0.258,-0.579,-0.944
-0.274,0.818,0.155,27.58,-0.56,136.36,0.235,-0.576,-0.948
-0.327,0.824,0.166,29.54,-3.15,138.32,0.218,-0.578,-0.952
-0.378,0.846,0.191,29.61,-4.69,138.88,0.189,-0.582,-0.952
-0.422,0.836,0.176,42.0,-7.35,140.56,0.178,-0.58,-0.947
-0.426,0.79,0.149,57.82,-11.69,143.57,0.147,-0.578,-0.973
-0.441,0.762,0.132,69.649,-19.32,150.85,0.138,-0.574,-0.973
-0.478,0.719,0.158,73.01,-25.9,155.26,0.126,-0.575,-0.984
-0.548,0.666,0.25,67.129,-35.98,156.8,0.096,-0.565,-0.991
-0.67,0.634,0.244,70.0,-40.81,157.08,0.081,-0.555,-0.998
-0.738,0.64,0.19,80.919,-47.46,159.53,0.054,-0.551,-1.011
-0.796,0.648,0.129,97.79,-57.05,162.89,0.037,-0.545,-1.016
-0.839,0.67,0.146,119.49,-66.99,164.78,0.005,-0.529,-1.036
-0.865,0.696,0.148,141.75,-73.22,162.82,-0.003,-0.524,-1.042
-0.88,0.684,0.161,161.7,-80.22,154.35,-0.025,-0.511,-1.051
-0.901,0.58,0.145,175.7,-90.09,147.63,-0.048,-0.49,-1.067
-0.908,0.466,0.148,176.05,-94.64,138.6,-0.065,-0.474,-1.08
-0.922,0.357,0.129,173.18,-98.7,129.01,-0.085,-0.452,-1.086
-0.963,0.277,0.156,166.11,-105.21,118.93,-0.098,-0.434,-1.096
-1.004,0.217,0.212,152.88,-109.62,107.8,-0.107,-0.423,-1.094
-1.032,0.161,0.263,131.18,-106.54,85.82,-0.127,-0.401,-1.1
-1.04,0.1,0.297,78.61,-101.01,67.62,-0.138,-0.396,-1.097
-1.036,0.083,0.301,34.02,-95.83,47.04,-0.143,-0.383,-1.093
-1.035,0.097,0.294,-9.17,-91.84,28.42,-0.149,-0.379,-1.081
-1.044,0.146,0.27,-44.59,-89.11,14.91,-0.154,-0.382,-1.067
-1.075,0.191,0.268,-77.98,-87.92,6.79,-0.159,-0.38,-1.054
-1.136,0.252,0.293,-88.2,-86.24,7.56,-0.165,-0.382,-1.04
-1.154,0.29,0.294,-92.4,-82.11,11.34,-0.167,-0.383,-1.031
-1.148,0.352,0.283,-86.17,-75.46,17.5,-0.167,-0.382,-1.016
-1.127,0.427,0.291,-68.53,-70.63,26.18,-0.168,-0.378,-0.995
-1.1,0.475,0.318,-42.91,-66.99,35.77,-0.169,-0.375,-0.984
-1.07,0.472,0.341,5.46,-64.75,48.09,-0.174,-0.371,-0.975
-1.039,0.348,0.286,28.56,-64.19,54.04,-0.178,-0.366,-0.963
-1.103,0.277,0.432,44.87,-63.07,58.659,-0.187,-0.354,-0.961
-1.185,-0.084,0.718,11.76,-44.45,62.51,-0.184,-0.349,-0.961
-1.194,-0.224,0.657,-60.9,-1.19,68.25,-0.189,-0.348,-0.96
-1.083,-0.077,0.381,-160.93,20.72,25.83,-0.19,-0.333,-0.942
-1.048,0.3,0.273,-245.63,11.2,-0.77,-0.192,-0.33,-0.941
-1.065,0.563,0.261,-237.02,17.15,-2.94,-0.193,-0.326,-0.917
-1.009,0.74,0.231,-179.69,35.98,12.88,-0.197,-0.318,-0.911
-0.9,0.73,0.193,-107.59,43.61,29.05,-0.198,-0.314,-0.91
-0.835,0.586,0.169,-28.35,20.37,30.38,-0.202,-0.312,-0.908
-0.908,0.373,0.15,-12.32,4.69,22.96,-0.207,-0.307,-0.912
-0.999,0.268,0.13,-19.18,6.72,14.0,-0.203,-0.306,-0.919
-1.033,0.215,0.076,-41.23,22.54,3.36,-0.201,-0.303,-0.916
-1.009,0.214,0.031,-71.26,35.63,-7.42,-0.204,-0.301,-0.919
-0.987,0.245,0.021,-101.85,39.06,-18.76,-0.203,-0.299,-0.914
-0.994,0.333,0.031,-133.77,36.33,-35.21,-0.207,-0.306,-0.918
-1.0,0.395,0.03,-140.84,35.42,-42.07,-0.207,-0.307,-0.906
-0.992,0.438,0.031,-137.55,34.58,-45.78,-0.203,-0.31,-0.906
-0.969,0.456,0.03,-127.47,33.04,-49.07,-0.2,-0.308,-0.903
-0.945,0.456,0.04,-113.12,24.43,-54.04,-0.197,-0.312,-0.901
-0.933,0.449,0.055,-85.12,17.08,-56.35,-0.193,-0.317,-0.9
-0.945,0.441,0.064,-63.07,8.33,-57.68,-0.192,-0.322,-0.899
-0.956,0.428,0.071,-40.11,1.12,-58.17,-0.191,-0.331,-0.899
-0.953,0.413,0.075,-17.43,-3.92,-57.89,-0.186,-0.333,-0.895
-0.944,0.394,0.068,3.08,-9.1,-56.91,-0.181,-0.339,-0.894
-0.944,0.377,0.063,30.38,-18.34,-55.51,-0.173,-0.344,-0.891
-0.962,0.339,0.057,43.68,-23.03,-54.04,-0.173,-0.35,-0.893
-0.973,0.32,0.053,54.6,-25.76,-51.66,-0.167,-0.358,-0.896
-0.981,0.307,0.048,62.37,-27.16,-49.28,-0.167,-0.365,-0.897
-0.987,0.296,0.048,68.669,-28.14,-46.34,-0.16,-0.372,-0.9
-0.992,0.282,0.051,75.389,-27.72,-41.23,-0.157,-0.379,-0.899
-0.996,0.27,0.063,77.35,-26.46,-37.17,-0.155,-0.387,-0.91
-0.998,0.263,0.095,78.679,-24.15,-33.04,-0.152,-0.394,-0.912
-0.992,0.243,0.117,82.11,-20.02,-27.23,-0.145,-0.397,-0.921
-0.978,0.223,0.134,84.419,-16.66,-19.67,-0.146,-0.405,-0.93
-0.966,0.194,0.144,83.02,-13.72,-14.21,-0.143,-0.409,-0.938
-0.958,0.166,0.15,75.669,-9.94,-10.15,-0.141,-0.413,-0.941
-0.955,0.141,0.136,52.85,-8.33,-8.96,-0.146,-0.411,-0.952
-0.969,0.148,0.128,33.18,-7.35,-8.4,-0.141,-0.414,-0.948
-0.989,0.173,0.122,14.91,-6.44,-7.84,-0.139,-0.415,-0.949
-1.004,0.206,0.116,2.38,-5.39,-6.23,-0.142,-0.418,-0.95
-1.007,0.24,0.116,-2.52,-4.06,-3.15,-0.141,-0.419,-0.953
-0.995,0.264,0.111,-1.82,-1.68,5.11,-0.144,-0.416,-0.953
-0.969,0.267,0.098,1.89,0.63,9.24,-0.14,-0.413,-0.948
-0.957,0.257,0.091,1.4,1.33,11.69,-0.138,-0.414,-0.95
-0.945,0.25,0.089,-0.56,1.96,13.16,-0.14,-0.411,-0.945
-0.941,0.249,0.092,-3.85,2.45,14.28,-0.143,-0.412,-0.944
-0.938,0.253,0.097,-6.51,2.31,15.61,-0.141,-0.409,-0.949
-0.942,0.261,0.101,-8.61,1.54,17.57,-0.149,-0.406,-0.948
-0.946,0.266,0.106,-11.13,0.49,20.79,-0.149,-0.403,-0.946
-0.946,0.281,0.108,-12.04,-0.07,23.52,-0.151,-0.402,-0.944
-0.942,0.294,0.104,-11.69,-0.7,26.32,-0.153,-0.4,-0.945
-0.939,0.304,0.099,-9.87,-1.54,29.19,-0.154,-0.4,-0.95
-0.943,0.311,0.103,-7.14,-2.59,31.92,-0.157,-0.395,-0.941
-0.951,0.319,0.11,-2.87,-4.2,34.93,-0.16,-0.389,-0.944
-0.961,0.331,0.115,0.35,-4.9,36.12,-0.162,-0.385,-0.951
-0.965,0.334,0.125,3.29,-5.67,36.61,-0.166,-0.38,-0.951
-0.96,0.337,0.128,5.74,-5.32,36.26,-0.165,-0.378,-0.944
-0.957,0.336,0.13,7.63,-5.32,34.93,-0.17,-0.373,-0.939
-0.958,0.336,0.128,8.61,-6.3,32.9,-0.175,-0.37,-0.944
-0.967,0.337,0.129,8.68,-6.44,28.91,-0.182,-0.363,-0.943
-0.973,0.339,0.131,7.91,-5.74,25.83,-0.181,-0.362,-0.944
-0.972,0.34,0.133,7.21,-4.97,22.4,-0.178,-0.359,-0.942
-0.973,0.339,0.134,6.16,-4.2,19.25,-0.172,-0.357,-0.944
-0.976,0.336,0.134,4.55,-3.71,15.47,-0.179,-0.36,-0.947
-0.978,0.335,0.138,2.45,-3.15,11.55,-0.179,-0.356,-0.941
-0.974,0.332,0.136,0.35,-1.96,5.46,-0.178,-0.35,-0.946
-0.963,0.328,0.129,-3.15,-0.7,1.4,-0.179,-0.356,-0.942
-0.961,0.321,0.128,-5.18,-0.07,-2.24,-0.182,-0.355,-0.94
-0.959,0.32,0.127,-7.0,0.56,-4.97,-0.184,-0.352,-0.945
-0.958,0.323,0.125,-9.03,1.19,-7.84,-0.182,-0.354,-0.95
-0.957,0.325,0.121,-9.94,1.54,-10.71,-0.18,-0.352,-0.942
-0.958,0.325,0.125,-8.75,1.26,-12.95,-0.179,-0.357,-0.94
-0.958,0.322,0.122,-7.21,0.91,-14.63,-0.176,-0.356,-0.941
-0.955,0.31,0.119,-5.25,0.42,-16.66,-0.179,-0.357,-0.938
-0.953,0.306,0.118,-4.27,-0.28,-18.2,-0.175,-0.364,-0.942
-0.954,0.305,0.119,-3.15,-1.33,-19.25,-0.17,-0.367,-0.939
-0.962,0.305,0.127,-1.33,-2.52,-19.6,-0.17,-0.371,-0.944
-0.973,0.303,0.133,1.4,-3.36,-19.25,-0.169,-0.367,-0.943
-0.979,0.295,0.137,7.0,-4.34,-17.85,-0.174,-0.375,-0.946
-0.976,0.28,0.145,10.15,-4.34,-16.66,-0.166,-0.374,-0.944
-0.973,0.271,0.149,12.25,-4.48,-15.61,-0.167,-0.373,-0.946
-0.969,0.265,0.157,13.37,-4.9,-14.77,-0.168,-0.378,-0.946
-0.966,0.262,0.161,14.07,-4.76,-13.93,-0.17,-0.383,-0.952
-0.967,0.262,0.166,15.12,-4.83,-13.23,-0.167,-0.382,-0.942
-0.999,0.254,0.161,16.8,-4.27,-11.13,-0.163,-0.385,-0.948
-0.969,0.248,0.154,16.17,-3.99,-9.38,-0.163,-0.388,-0.948
-0.967,0.243,0.152,13.58,-3.29,-8.4,-0.159,-0.387,-0.944
-0.97,0.244,0.149,9.66,-2.94,-7.35,-0.165,-0.391,-0.947
-0.977,0.252,0.154,6.23,-2.8,-5.74,-0.161,-0.389,-0.945
-0.98,0.261,0.162,5.25,-2.45,-4.34,-0.158,-0.391,-0.949
-0.951,0.266,0.157,6.65,0.21,-1.05,-0.154,-0.393,-0.949
-0.938,0.261,0.15,8.54,0.35,0.56,-0.155,-0.391,-0.951
-0.939,0.257,0.149,9.1,-0.77,1.96,-0.16,-0.387,-0.948
-0.947,0.254,0.147,7.98,-0.14,2.59,-0.159,-0.391,-0.957
-0.947,0.255,0.145,7.0,1.05,3.29,-0.16,-0.388,-0.954
-0.943,0.262,0.142,6.58,1.75,5.39,-0.16,-0.387,-0.954
-0.946,0.266,0.136,7.21,0.91,6.51,-0.163,-0.389,-0.96
-0.955,0.264,0.135,7.7,0.14,8.4,-0.159,-0.385,-0.963
-0.959,0.265,0.131,7.14,0.35,9.94,-0.158,-0.388,-0.962
-0.958,0.267,0.124,5.95,0.49,10.99,-0.161,-0.391,-0.961
-0.96,0.272,0.122,4.55,-0.07,11.69,-0.165,-0.387,-0.964
-0.963,0.277,0.123,3.5,-0.42,12.25,-0.166,-0.385,-0.961
-0.956,0.282,0.122,3.22,-0.49,12.39,-0.168,-0.384,-0.963
-0.953,0.285,0.117,3.22,-1.05,12.11,-0.168,-0.382,-0.968
-0.955,0.288,0.119,3.57,-2.17,11.62,-0.17,-0.377,-0.965
-0.959,0.289,0.12,3.78,-2.73,10.99,-0.168,-0.376,-0.962
-0.958,0.291,0.118,4.2,-2.87,10.22,-0.171,-0.375,-0.965
