ax,ay,az,gx,gy,gz,mx,my,mz
-0.675,0.789,-0.083,7.77,-1.89,13.79,-0.013,-0.49,-0.865
-0.699,0.798,-0.077,14.91,-0.84,19.32,-0.018,-0.49,-0.87
-0.644,0.674,-0.036,11.41,-2.38,5.18,-0.018,-0.49,-0.871
-0.66,0.662,-0.025,0.84,-4.97,-1.96,-0.019,-0.488,-0.873
-0.775,0.762,-0.089,2.8,-2.8,2.59,-0.019,-0.487,-0.876
-0.728,0.727,-0.072,4.97,-1.61,-0.98,-0.021,-0.487,-0.877
-0.647,0.746,-0.06,1.19,-2.24,-0.49,-0.022,-0.49,-0.875
-0.638,0.72,-0.05,1.68,-2.87,-2.45,-0.021,-0.49,-0.873
-0.644,0.7,-0.026,4.83,-3.15,-2.94,-0.021,-0.486,-0.872
-0.669,0.701,-0.018,7.21,-3.01,-0.56,-0.016,-0.488,-0.875
-0.693,0.707,-0.024,6.93,-2.1,2.03,-0.02,-0.486,-0.873
-0.71,0.708,-0.026,2.8,-1.4,3.64,-0.02,-0.486,-0.881
-0.704,0.729,-0.036,-2.38,-0.14,4.27,-0.022,-0.491,-0.877
-0.691,0.73,-0.033,-3.15,-0.21,3.08,-0.02,-0.494,-0.88
-0.691,0.725,-0.031,-2.66,0.14,2.1,-0.02,-0.49,-0.875
-0.696,0.722,-0.033,-1.89,0.28,2.66,-0.02,-0.494,-0.88
-0.696,0.723,-0.042,-2.59,0.21,3.22,-0.024,-0.493,-0.882
-0.729,0.733,-0.033,-8.26,-1.68,4.62,-0.024,-0.489,-0.888
-0.691,0.712,0.015,-24.85,-3.64,2.03,-0.026,-0.488,-0.879
-0.631,0.802,0.039,-52.29,-4.34,2.59,-0.028,-0.486,-0.867
-0.613,0.755,0.107,-94.99,-4.69,4.06,-0.027,-0.48,-0.859
-0.514,0.81,0.106,-138.25,5.53,7.21,-0.027,-0.474,-0.841
-0.457,0.828,0.1,-184.73,16.94,2.03,-0.029,-0.465,-0.83
-0.592,0.951,0.096,-235.76,28.0,-5.53,-0.032,-0.448,-0.792
-0.472,1.078,0.027,-234.78,42.42,-32.62,-0.035,-0.434,-0.776
-0.515,1.144,0.044,-195.65,40.46,-33.6,-0.034,-0.432,-0.768
-0.519,1.271,-0.003,-138.39,45.08,-35.42,-0.037,-0.419,-0.757
-0.546,1.235,-0.06,-76.09,45.92,-44.31,-0.034,-0.422,-0.753
-0.623,1.113,-0.159,-41.23,40.04,-45.71,-0.028,-0.417,-0.751
-0.764,1.048,-0.225,-78.26,59.149,-68.74,-0.027,-0.418,-0.746
-0.634,1.413,-0.147,-63.14,64.26,-28.7,-0.023,-0.418,-0.75
-0.583,1.573,-0.113,11.13,76.09,-52.29,-0.027,-0.421,-0.747
-0.708,1.31,-0.198,67.34,75.389,-113.47,-0.026,-0.429,-0.75
-0.959,1.222,-0.207,95.97,63.629,-102.76,-0.015,-0.453,-0.77
-0.919,0.979,-0.319,128.17,71.47,-38.57,-0.012,-0.461,-0.788
-0.771,0.679,-0.247,71.54,70.21,-52.92,-0.01,-0.478,-0.795
-0.666,1.022,-0.024,-2.59,59.149,-60.13,-0.008,-0.481,-0.797
-0.626,1.179,0.01,-3.64,55.79,-71.68,0.0,-0.486,-0.8
-0.605,1.094,0.027,10.92,56.35,-73.5,0.005,-0.491,-0.801
-0.568,1.157,0.064,12.39,55.159,-70.49,0.01,-0.501,-0.804
-0.561,1.336,-0.058,37.8,53.06,-71.96,0.02,-0.504,-0.814
-0.615,1.232,-0.127,59.99,50.889,-75.95,0.023,-0.507,-0.826
-0.679,1.165,-0.079,62.3,47.32,-82.18,0.035,-0.518,-0.829
-0.723,1.197,0.014,66.08,44.03,-88.76,0.042,-0.523,-0.841
-0.726,1.132,0.087,80.5,43.54,-90.37,0.061,-0.534,-0.844
-0.685,1.043,0.035,86.73,40.88,-96.04,0.07,-0.548,-0.86
-0.621,1.057,-0.003,74.06,34.37,-106.47,0.072,-0.551,-0.866
-0.63,1.02,0.025,58.1,27.16,-122.92,0.092,-0.564,-0.88
-0.659,0.928,0.001,41.72,20.44,-142.1,0.107,-0.566,-0.887
-0.665,0.84,0.019,20.23,17.92,-154.91,0.137,-0.573,-0.893
-0.685,0.749,0.086,31.5,15.4,-151.34,0.155,-0.577,-0.893
-0.654,0.703,0.04,78.47,20.51,-119.56,0.163,-0.577,-0.902
-0.435,0.727,-0.15,89.53,24.29,-97.09,0.189,-0.575,-0.919
-0.312,0.787,-0.216,86.8,22.47,-84.0,0.192,-0.585,-0.928
-0.281,0.758,-0.187,82.389,13.23,-83.51,0.215,-0.582,-0.94
-0.367,0.678,0.01,82.81,5.95,-80.57,0.219,-0.58,-0.946
-0.4,0.769,0.132,88.97,13.58,-52.85,0.232,-0.581,-0.971
-0.283,0.846,0.088,68.74,22.12,-41.86,0.238,-0.579,-0.973
-0.206,0.855,0.092,44.17,23.17,-45.22,0.247,-0.579,-0.979
-0.234,0.809,0.152,19.04,19.67,-53.48,0.253,-0.579,-0.978
-0.293,0.816,0.198,0.91,16.8,-57.47,0.262,-0.576,-0.977
-0.237,0.815,0.341,-1.82,10.92,-62.58,0.271,-0.572,-0.975
-0.166,0.818,0.366,15.68,7.56,-57.54,0.274,-0.576,-0.977
-0.111,0.802,0.295,38.64,5.32,-49.98,0.286,-0.572,-0.987
-0.077,0.739,0.2,50.75,3.08,-39.83,0.294,-0.569,-0.988
-0.086,0.664,0.164,52.99,0.21,-29.54,0.295,-0.569,-0.995
-0.121,0.632,0.195,42.14,-1.19,-24.92,0.301,-0.569,-1.001
-0.106,0.644,0.195,28.7,-1.54,-20.09,0.302,-0.57,-1.006
-0.031,0.692,0.201,10.5,-2.52,-12.6,0.31,-0.564,-1.01
0.028,0.719,0.243,6.02,-4.62,-5.11,0.308,-0.567,-1.011
0.027,0.69,0.273,2.31,-4.55,-1.54,0.311,-0.567,-1.01
0.033,0.669,0.293,-2.59,-2.73,0.56,0.308,-0.571,-1.008
0.047,0.669,0.298,-11.55,-0.63,-1.4,0.307,-0.574,-1.009
0.055,0.679,0.309,-22.26,-1.96,-3.22,0.31,-0.571,-1.008
0.07,0.781,0.354,-27.37,-4.13,-1.61,0.313,-0.568,-1.001
0.072,0.803,0.39,-13.16,-6.51,1.05,0.31,-0.57,-1.0
0.063,0.788,0.413,3.85,-8.61,2.87,0.308,-0.569,-0.994
0.049,0.74,0.38,15.26,-8.33,3.36,0.31,-0.568,-1.004
0.042,0.726,0.348,17.99,-8.82,4.2,0.31,-0.569,-1.005
0.09,0.786,0.36,15.19,-11.55,4.83,0.307,-0.568,-1.005
0.084,0.82,0.391,20.44,-14.42,5.67,0.305,-0.565,-1.009
0.076,0.815,0.408,29.26,-15.68,6.23,0.307,-0.566,-1.008
0.073,0.761,0.43,34.51,-15.96,5.04,0.304,-0.568,-1.019
0.067,0.732,0.436,33.46,-13.3,6.16,0.302,-0.567,-1.023
0.065,0.743,0.399,16.66,-8.68,6.79,0.301,-0.567,-1.023
0.075,0.795,0.38,5.11,-8.33,5.18,0.304,-0.567,-1.027
0.082,0.82,0.396,-2.66,-8.33,3.36,0.301,-0.568,-1.026
0.084,0.811,0.411,-7.56,-7.7,1.61,0.303,-0.564,-1.027
0.07,0.797,0.436,-12.25,-7.77,0.7,0.299,-0.566,-1.025
0.066,0.798,0.458,-15.26,-7.0,1.47,0.298,-0.566,-1.018
0.066,0.815,0.47,-18.13,-6.09,1.47,0.297,-0.567,-1.023
0.076,0.851,0.452,-13.86,-5.95,1.4,0.293,-0.563,-1.021
0.075,0.885,0.442,-10.15,-6.44,1.96,0.298,-0.567,-1.014
0.072,0.903,0.461,-4.9,-7.35,2.66,0.3,-0.569,-1.014
0.06,0.886,0.472,-1.68,-7.0,2.1,0.297,-0.566,-1.024
0.056,0.864,0.466,0.84,-6.37,3.5,0.294,-0.568,-1.019
0.067,0.873,0.47,0.98,-5.81,6.02,0.295,-0.568,-1.017
0.06,0.904,0.465,3.08,-5.11,7.98,0.298,-0.566,-1.023
0.063,0.917,0.461,5.81,-4.62,9.03,0.296,-0.568,-1.021
0.054,0.909,0.465,7.77,-3.92,8.96,0.294,-0.57,-1.015
0.058,0.884,0.458,5.32,-2.73,8.68,0.295,-0.566,-1.018
0.062,0.877,0.464,-2.73,-1.75,7.14,0.291,-0.57,-1.016
0.081,0.901,0.46,-6.93,-1.47,6.37,0.295,-0.572,-1.016
0.082,0.909,0.446,-8.68,-0.77,5.39,0.288,-0.571,-1.011
0.066,0.915,0.451,-8.26,-0.98,5.32,0.285,-0.571,-1.011
0.066,0.924,0.448,-6.23,-0.91,5.18,0.284,-0.569,-1.011
0.071,0.914,0.458,-2.24,-0.7,3.85,0.287,-0.572,-1.009
0.058,0.89,0.437,-1.75,0.28,3.5,0.284,-0.571,-1.012
0.068,0.896,0.425,-3.36,-0.07,3.85,0.284,-0.568,-1.014
0.074,0.915,0.429,-4.76,-0.7,3.22,0.282,-0.568,-1.014
0.06,0.917,0.437,-3.01,-0.56,2.66,0.281,-0.572,-1.017
0.055,0.915,0.433,0.42,-0.77,2.03,0.284,-0.567,-1.014
0.057,0.901,0.427,2.17,-1.33,1.54,0.288,-0.567,-1.014
0.058,0.901,0.42,0.56,-1.19,2.03,0.283,-0.566,-1.009
0.068,0.912,0.426,-1.05,-1.47,2.1,0.281,-0.568,-1.01
0.073,0.908,0.418,-1.54,-1.19,1.19,0.28,-0.57,-1.007
0.069,0.9,0.412,-0.63,-1.33,0.42,0.282,-0.571,-1.017
0.057,0.895,0.415,-0.14,-1.89,0.28,0.281,-0.569,-1.008
0.063,0.899,0.404,2.59,-2.45,1.05,0.279,-0.574,-1.013
0.052,0.878,0.407,3.71,-2.8,0.91,0.281,-0.575,-1.007
0.044,0.857,0.401,3.36,-2.87,0.35,0.28,-0.574,-1.015
0.055,0.858,0.406,0.63,-3.36,-0.42,0.279,-0.573,-1.014
0.039,0.873,0.427,-1.96,-4.34,-0.14,0.284,-0.572,-1.013
0.027,0.899,0.425,-0.91,-4.2,1.19,0.285,-0.574,-1.013
0.023,0.895,0.431,2.24,-4.48,1.12,0.285,-0.574,-1.015
0.018,0.866,0.431,4.06,-4.2,0.49,0.283,-0.571,-1.011
0.026,0.862,0.421,2.52,-4.62,0.98,0.28,-0.571,-1.011
0.041,0.874,0.423,0.56,-5.18,1.96,0.281,-0.573,-1.013
0.035,0.879,0.441,1.26,-5.6,2.52,0.281,-0.571,-1.011
0.04,0.888,0.437,1.68,-4.41,3.22,0.28,-0.572,-1.016
0.045,0.883,0.428,0.84,-4.06,2.73,0.279,-0.572,-1.01
0.044,0.89,0.435,-1.12,-3.85,1.96,0.282,-0.575,-1.014
0.037,0.899,0.436,-2.45,-3.57,1.33,0.281,-0.571,-1.017
0.028,0.92,0.426,-3.43,-3.29,1.33,0.277,-0.572,-1.015
0.032,0.925,0.421,-2.52,-3.64,0.7,0.28,-0.57,-1.011
0.033,0.916,0.427,-0.14,-4.34,-0.42,0.279,-0.574,-1.013
0.03,0.89,0.433,0.56,-3.99,-0.49,0.282,-0.573,-1.012
0.024,0.886,0.429,-0.63,-3.78,-0.63,0.281,-0.575,-1.016
0.024,0.893,0.436,-2.45,-3.71,-0.35,0.282,-0.571,-1.01
0.024,0.895,0.438,-1.61,-3.36,0.0,0.28,-0.573,-1.007
0.022,0.888,0.428,-0.14,-2.94,-0.14,0.284,-0.572,-1.011
0.016,0.893,0.417,2.66,-5.18,0.35,0.281,-0.572,-1.017
0.011,0.892,0.44,3.22,-6.02,0.21,0.282,-0.573,-1.014
0.006,0.885,0.431,2.24,-5.18,0.63,0.283,-0.572,-1.013
0.012,0.898,0.442,0.7,-5.04,0.63,0.28,-0.57,-1.013
0.015,0.891,0.452,0.14,-4.2,-0.49,0.281,-0.569,-1.014
0.023,0.883,0.454,-0.28,-3.08,-0.84,0.276,-0.569,-1.007
0.03,0.895,0.455,-2.17,-2.31,-0.14,0.276,-0.572,-1.008
0.042,0.915,0.457,-2.17,-1.89,0.0,0.281,-0.572,-1.014
0.053,0.917,0.465,-1.75,-1.82,-0.91,0.28,-0.573,-1.02
0.051,0.898,0.448,0.07,-0.84,-1.54,0.28,-0.573,-1.008
0.031,0.878,0.43,0.28,-0.14,-1.89,0.283,-0.57,-1.007
0.024,0.896,0.419,-2.45,-1.26,-0.7,0.279,-0.569,-1.009
0.022,0.907,0.422,-0.56,-1.54,-0.49,0.28,-0.569,-1.012
0.003,0.901,0.405,2.31,-1.26,0.07,0.277,-0.573,-1.013
-0.001,0.901,0.407,2.66,-1.68,0.28,0.277,-0.574,-1.016
0.001,0.894,0.415,1.82,-1.89,-0.77,0.283,-0.572,-1.01
0.011,0.895,0.423,1.26,-1.96,-0.84,0.28,-0.573,-1.008
0.016,0.907,0.434,1.68,-1.75,-0.28,0.279,-0.57,-1.012
0.031,0.908,0.436,3.22,-0.84,-0.84,0.283,-0.573,-1.009
0.03,0.886,0.436,2.73,-0.42,-0.84,0.284,-0.569,-1.004
0.023,0.887,0.409,0.77,0.35,-0.56,0.282,-0.573,-1.013
0.019,0.91,0.411,-1.68,-0.35,-0.07,0.278,-0.575,-1.014
0.025,0.924,0.424,-2.03,-1.47,-0.84,0.281,-0.574,-1.01
0.038,0.925,0.431,0.28,-1.54,-1.75,0.274,-0.571,-1.015
0.045,0.91,0.415,4.76,-0.77,-3.22,0.279,-0.567,-1.004
0.06,0.879,0.398,4.9,-0.42,-4.83,0.281,-0.569,-1.01
0.034,0.851,0.386,4.13,0.35,-6.02,0.28,-0.57,-1.013
-0.002,0.829,0.36,3.36,0.49,-6.51,0.284,-0.568,-1.01
-0.009,0.829,0.363,0.98,-1.19,-6.51,0.288,-0.566,-1.009
0.017,0.822,0.384,0.63,-3.64,-6.65,0.286,-0.566,-1.013
0.023,0.78,0.398,4.97,-3.99,-6.79,0.286,-0.567,-1.017
-0.001,0.754,0.385,6.65,-3.5,-5.32,0.284,-0.569,-1.017
0.002,0.749,0.38,5.04,-3.92,-4.69,0.288,-0.567,-1.015
0.019,0.746,0.381,3.71,-4.34,-4.62,0.287,-0.566,-1.019
0.0,0.725,0.358,5.81,-4.41,-3.5,0.293,-0.568,-1.021
-0.026,0.708,0.325,8.61,-5.74,0.49,0.289,-0.567,-1.018
-0.001,0.706,0.348,6.44,-8.12,1.96,0.287,-0.566,-1.021
0.021,0.706,0.374,3.22,-9.17,2.66,0.289,-0.566,-1.022
0.035,0.721,0.397,-2.59,-8.89,2.8,0.286,-0.565,-1.018
0.042,0.744,0.402,-10.92,-7.42,3.15,0.285,-0.569,-1.018
0.038,0.785,0.385,-21.49,-6.86,2.31,0.283,-0.571,-1.016
0.018,0.89,0.381,-27.51,-9.03,-0.28,0.286,-0.572,-1.013
-0.003,0.933,0.4,-17.71,-9.31,-2.31,0.284,-0.569,-1.008
-0.013,0.927,0.395,-1.4,-8.4,-4.48,0.283,-0.572,-1.009
-0.002,0.882,0.383,11.48,-8.75,-5.88,0.29,-0.566,-1.015
-0.003,0.815,0.375,17.71,-10.08,-6.16,0.289,-0.568,-1.013
-0.03,0.779,0.335,14.0,-10.64,-3.92,0.291,-0.57,-1.014
-0.059,0.78,0.309,10.36,-12.46,-2.31,0.283,-0.571,-1.018
-0.095,0.797,0.31,9.31,-13.44,-0.42,0.285,-0.57,-1.015
-0.14,0.787,0.311,8.4,-13.16,-0.63,0.282,-0.568,-1.012
-0.157,0.766,0.316,6.58,-13.86,0.63,0.285,-0.569,-1.011
-0.156,0.752,0.359,1.26,-16.38,3.36,0.283,-0.571,-1.018
-0.16,0.742,0.374,-3.36,-17.43,10.5,0.279,-0.566,-1.022
-0.136,0.778,0.372,-7.98,-19.32,15.19,0.281,-0.568,-1.02
-0.122,0.797,0.39,-10.29,-21.35,17.64,0.279,-0.569,-1.022
-0.132,0.8,0.384,-10.22,-21.0,20.23,0.278,-0.574,-1.019
-0.156,0.803,0.347,-9.38,-21.35,23.38,0.272,-0.573,-1.018
-0.169,0.81,0.289,-11.97,-27.02,28.77,0.268,-0.572,-1.013
-0.179,0.803,0.26,-13.79,-33.11,31.71,0.266,-0.573,-1.016
-0.185,0.76,0.243,-15.05,-40.32,34.09,0.258,-0.569,-1.011
-0.169,0.721,0.253,-17.08,-48.72,38.01,0.255,-0.574,-1.013
-0.149,0.743,0.338,-26.81,-54.6,45.78,0.24,-0.573,-1.014
-0.166,0.788,0.365,-36.68,-52.22,54.04,0.235,-0.575,-1.01
-0.22,0.835,0.285,-42.98,-47.04,64.19,0.224,-0.578,-0.997
-0.224,0.877,0.147,-43.82,-51.24,66.36,0.221,-0.574,-0.994
-0.199,0.91,0.173,-49.21,-59.43,67.34,0.207,-0.575,-0.989
-0.223,0.909,0.243,-51.45,-64.68,67.34,0.19,-0.575,-0.986
-0.256,0.924,0.287,-47.32,-63.7,68.6,0.185,-0.575,-0.978
-0.288,0.927,0.265,-42.98,-60.55,65.24,0.168,-0.573,-0.971
-0.326,0.886,0.206,-41.79,-57.75,56.84,0.169,-0.574,-0.968
-0.342,0.863,0.136,-44.52,-56.7,59.639,0.154,-0.575,-0.962
-0.321,0.939,0.185,-52.22,-59.5,65.52,0.15,-0.573,-0.954
-0.318,1.007,0.25,-64.61,-58.52,65.379,0.14,-0.571,-0.944
-0.365,0.979,0.228,-74.76,-53.27,56.84,0.129,-0.571,-0.931
-0.446,0.87,0.114,-90.37,-43.47,47.95,0.122,-0.568,-0.92
-0.54,0.828,-0.069,-104.51,-40.11,58.45,0.112,-0.564,-0.902
-0.554,0.966,-0.029,-121.59,-42.14,72.1,0.102,-0.556,-0.892
-0.525,1.146,0.077,-132.44,-42.77,76.58,0.083,-0.55,-0.872
-0.505,1.199,0.091,-128.1,-37.73,69.23,0.082,-0.54,-0.858
-0.557,1.082,-0.064,-109.9,-30.94,61.389,0.077,-0.535,-0.849
-0.651,0.998,-0.236,-89.74,-23.1,72.59,0.063,-0.524,-0.827
-0.741,1.0,-0.256,-87.08,-18.55,81.27,0.06,-0.521,-0.819
-0.763,1.019,-0.189,-97.65,-14.56,78.889,0.044,-0.502,-0.808
-0.771,1.016,-0.066,-107.38,-9.94,67.97,0.038,-0.497,-0.795
-0.721,0.975,-0.05,-113.05,-3.99,53.409,0.031,-0.489,-0.754
-0.671,0.943,-0.039,-115.08,-4.9,45.78,0.017,-0.471,-0.775
-0.643,0.978,-0.111,-100.8,-12.32,45.15,0.014,-0.463,-0.77
-0.622,1.186,-0.132,-94.43,-15.05,33.81,0.007,-0.452,-0.756
-0.671,1.168,-0.179,-29.4,-31.29,38.71,0.004,-0.445,-0.753
-0.629,1.223,-0.206,9.38,-26.11,45.5,0.0,-0.444,-0.753
-0.397,2.944,-0.147,244.23,-18.41,153.58,-0.012,-0.444,-0.775
-0.319,1.84,-0.512,512.54,-37.59,107.03,-0.025,-0.457,-0.803
-0.631,0.503,0.137,467.74,-94.85,7.84,-0.017,-0.493,-0.884
-0.588,0.861,0.504,267.05,-82.32,17.08,-0.016,-0.495,-0.903
-0.587,1.175,0.628,107.31,-64.68,-14.28,-0.014,-0.498,-0.92
-0.501,1.025,0.65,3.85,-51.38,-30.38,-0.01,-0.496,-0.918
-0.533,1.125,0.62,-59.01,-32.27,-47.53,-0.011,-0.498,-0.917
-0.455,0.892,0.452,-68.95,-10.92,-70.07,0.005,-0.51,-0.905
-0.465,0.686,0.22,-75.11,-0.91,-67.76,0.015,-0.509,-0.901
-0.512,0.652,0.067,-75.81,-17.43,-35.7,0.016,-0.514,-0.885
-0.5,0.658,-0.038,-61.04,-0.7,-22.47,0.021,-0.513,-0.877
-0.491,0.726,-0.143,-51.1,-0.14,-12.39,0.023,-0.512,-0.873
-0.506,0.701,-0.183,-23.24,-0.21,-4.13,0.022,-0.512,-0.874
-0.528,0.744,-0.189,-2.87,0.56,10.92,0.018,-0.508,-0.874
-0.574,0.766,-0.164,19.53,-0.35,23.8,0.019,-0.505,-0.876
-0.607,0.773,-0.11,37.31,-1.61,32.62,0.013,-0.505,-0.871
-0.623,0.769,-0.067,49.0,-5.39,39.41,0.008,-0.507,-0.887
-0.664,0.79,-0.013,51.24,-7.49,42.28,0.008,-0.511,-0.886
-0.68,0.827,0.01,47.81,-9.17,43.4,0.003,-0.507,-0.894
-0.727,0.83,0.075,40.18,-11.69,36.61,-0.004,-0.503,-0.901
-0.71,0.809,0.086,26.53,-9.66,23.8,-0.005,-0.502,-0.909
-0.695,0.811,0.083,11.9,-9.31,13.02,-0.004,-0.5,-0.902
-0.696,0.808,0.063,-0.14,-7.91,0.63,-0.003,-0.502,-0.902
-0.671,0.791,0.034,-11.9,-5.53,-5.95,-0.001,-0.501,-0.906
-0.674,0.779,0.042,-18.06,-6.37,-11.06,-0.006,-0.5,-0.9
-0.646,0.781,-0.003,-19.39,-3.57,-13.02,-0.005,-0.5,-0.902
-0.631,0.771,-0.022,-16.66,-3.78,-13.86,-0.002,-0.497,-0.902
-0.621,0.761,-0.037,-5.39,-2.8,-9.38,-0.007,-0.502,-0.895
-0.618,0.752,-0.044,1.26,-2.94,-6.65,0.001,-0.507,-0.899
-0.602,0.753,-0.039,6.65,-3.29,-3.43,-0.003,-0.502,-0.896
-0.608,0.762,-0.033,9.66,-3.22,1.19,0.001,-0.502,-0.897
-0.613,0.769,-0.023,10.01,-3.64,3.64,0.0,-0.504,-0.897
-0.619,0.777,-0.007,10.08,-4.13,5.46,-0.005,-0.506,-0.888
-0.626,0.782,0.009,9.24,-4.48,6.16,-0.001,-0.501,-0.892
-0.628,0.784,0.021,3.99,-4.76,5.32,-0.004,-0.499,-0.9
-0.627,0.784,0.018,-0.07,-4.55,4.06,-0.002,-0.503,-0.904
-0.629,0.783,0.014,-2.87,-4.97,2.73,-0.001,-0.498,-0.892
-0.632,0.776,0.011,-5.11,-4.9,0.63,0.0,-0.499,-0.896
-0.631,0.776,0.005,-6.65,-4.48,-0.77,-0.006,-0.5,-0.892
-0.633,0.773,-0.006,-7.84,-3.78,-2.24,-0.003,-0.501,-0.891
-0.634,0.774,-0.018,-7.28,-3.29,-2.1,0.0,-0.502,-0.889
-0.639,0.77,-0.024,-5.6,-3.01,-1.54,-0.007,-0.5,-0.895
-0.639,0.756,-0.011,-4.27,-2.1,-1.4,-0.004,-0.497,-0.891
-0.641,0.763,-0.041,-3.01,0.63,1.33,-0.001,-0.502,-0.894
-0.645,0.774,-0.044,0.56,1.54,1.75,-0.002,-0.505,-0.889
-0.649,0.782,-0.019,6.51,0.35,1.33,-0.005,-0.498,-0.899
-0.646,0.777,-0.001,7.7,-0.98,-0.14,-0.003,-0.502,-0.897
-0.642,0.769,0.009,5.81,-1.68,-1.05,-0.001,-0.499,-0.893
-0.637,0.765,0.007,2.17,-2.38,-1.4,-0.002,-0.502,-0.89
-0.633,0.762,0.002,-1.05,-2.8,-1.61,-0.008,-0.504,-0.897
-0.635,0.765,-0.003,-2.38,-2.87,-0.84,-0.006,-0.501,-0.891
-0.636,0.763,-0.011,-2.45,-2.66,-0.21,-0.005,-0.5,-0.892
-0.637,0.773,-0.013,0.07,-3.01,0.84,-0.002,-0.5,-0.889
-0.635,0.771,-0.005,2.66,-3.22,1.19,-0.001,-0.502,-0.896
-0.637,0.773,0.0,3.15,-3.01,1.82,0.001,-0.497,-0.893
-0.641,0.773,0.001,1.75,-2.87,1.12,-0.004,-0.501,-0.895
-0.645,0.77,0.002,0.14,-2.73,1.33,0.0,-0.499,-0.898
-0.644,0.779,-0.001,-0.49,-2.45,1.33,-0.002,-0.501,-0.901
-0.641,0.785,-0.006,0.42,-2.38,0.91,-0.006,-0.498,-0.896
-0.636,0.781,-0.003,1.4,-2.45,0.14,-0.008,-0.498,-0.896
-0.632,0.772,-0.001,1.05,-2.8,-0.7,-0.004,-0.497,-0.892
-0.632,0.77,0.0,-0.63,-2.94,-1.12,-0.009,-0.501,-0.897
-0.632,0.769,-0.005,-1.33,-3.01,-0.7,-0.007,-0.501,-0.894
-0.636,0.77,-0.005,-0.77,-2.87,-0.35,-0.011,-0.502,-0.889
-0.635,0.766,0.002,-0.63,-2.87,0.0,-0.01,-0.5,-0.891
-0.636,0.77,-0.011,-1.19,-2.45,0.56,-0.009,-0.502,-0.888
-0.639,0.771,-0.009,0.0,-2.52,0.77,-0.005,-0.505,-0.893
-0.64,0.766,0.0,0.28,-2.8,0.28,-0.006,-0.5,-0.891
-0.645,0.769,-0.001,0.21,-2.94,0.42,-0.002,-0.504,-0.892
-0.641,0.771,-0.002,0.42,-3.15,0.07,-0.002,-0.503,-0.891
-0.643,0.776,-0.003,0.21,-3.43,-0.28,-0.004,-0.503,-0.885
-0.646,0.774,-0.004,0.49,-3.85,-0.7,-0.007,-0.505,-0.892
-0.645,0.769,-0.003,-0.07,-3.99,-1.26,-0.006,-0.502,-0.895
-0.643,0.773,-0.003,-0.07,-4.06,-1.54,-0.006,-0.501,-0.899
-0.641,0.77,0.003,0.0,-4.34,-1.47,-0.009,-0.504,-0.896
-0.635,0.77,0.0,-0.7,-4.06,-0.98,-0.003,-0.505,-0.892
-0.631,0.768,0.0,-0.91,-3.78,-1.05,-0.008,-0.5,-0.889
-0.629,0.763,0.0,-2.1,-3.36,-0.91,-0.008,-0.503,-0.891
-0.632,0.765,-0.005,-2.8,-3.08,-0.63,-0.006,-0.504,-0.892
-0.639,0.765,-0.008,-2.31,-2.94,-0.28,-0.004,-0.505,-0.894
-0.644,0.774,-0.019,-1.4,-2.94,0.21,-0.002,-0.504,-0.891
-0.645,0.776,-0.018,-0.07,-3.15,0.21,-0.008,-0.501,-0.886
-0.645,0.775,-0.018,0.77,-3.5,-0.14,-0.003,-0.497,-0.889
-0.645,0.771,-0.015,1.68,-3.71,-0.42,-0.005,-0.496,-0.889
-0.639,0.769,-0.011,2.31,-4.06,-0.77,-0.007,-0.499,-0.891
-0.635,0.768,-0.01,3.15,-4.55,-0.84,-0.004,-0.503,-0.896
-0.63,0.769,-0.01,3.85,-4.69,-0.07,-0.007,-0.5,-0.887
-0.63,0.769,-0.007,3.85,-4.55,0.0,-0.005,-0.501,-0.889
-0.632,0.766,0.0,2.73,-4.48,-0.14,-0.004,-0.504,-0.891
-0.638,0.766,-0.003,1.61,-3.85,0.49,-0.004,-0.501,-0.888
-0.645,0.774,-0.004,1.47,-3.43,0.91,0.001,-0.5,-0.89
-0.647,0.772,0.0,1.68,-3.29,1.26,-0.001,-0.503,-0.894
-0.649,0.772,0.0,1.96,-3.08,2.03,-0.006,-0.501,-0.894
-0.642,0.771,0.0,1.47,-3.57,1.75,-0.007,-0.502,-0.893
-0.641,0.774,-0.004,0.84,-3.36,1.54,-0.01,-0.5,-0.894
-0.637,0.769,-0.002,0.14,-3.85,0.77,-0.01,-0.502,-0.894
-0.636,0.771,-0.004,-0.84,-3.78,0.42,-0.005,-0.502,-0.889
-0.634,0.772,-0.006,-1.12,-4.2,0.28,-0.001,-0.499,-0.885
-0.632,0.771,-0.015,-0.91,-4.27,0.14,-0.002,-0.506,-0.892
-0.633,0.773,-0.017,-0.35,-3.99,0.49,-0.001,-0.506,-0.891
-0.635,0.766,-0.012,0.35,-3.78,0.63,-0.007,-0.502,-0.89
-0.635,0.766,-0.011,0.84,-3.57,1.33,-0.006,-0.508,-0.887
-0.638,0.766,-0.006,1.05,-3.22,1.54,-0.008,-0.505,-0.889
-0.637,0.769,-0.009,0.7,-2.8,1.61,-0.008,-0.501,-0.888
-0.64,0.772,-0.007,0.42,-2.73,1.75,-0.009,-0.496,-0.888
-0.643,0.771,0.0,-0.14,-2.52,1.12,-0.004,-0.502,-0.888
