ax,ay,az,gx,gy,gz,mx,my,mz
-0.752,0.723,0.156,-140.77,-4.97,7.84,-0.042,-0.472,-0.861
-0.692,0.722,0.047,-190.19,-0.56,5.18,-0.044,-0.468,-0.844
-0.559,0.675,-0.103,-236.53,-0.98,-0.98,-0.044,-0.462,-0.837
-0.563,0.928,-0.158,-258.93,0.21,4.55,-0.047,-0.438,-0.794
-0.39,0.905,-0.223,-280.28,-1.33,-51.17,-0.051,-0.429,-0.78
-0.575,1.035,-0.123,-271.04,11.69,-71.47,-0.042,-0.408,-0.748
-0.487,1.051,-0.157,-209.65,14.77,-84.49,-0.038,-0.402,-0.737
-0.42,1.157,-0.179,-136.571,8.54,-76.51,-0.031,-0.396,-0.724
-0.459,1.193,-0.161,-67.13,7.0,-75.46,-0.022,-0.398,-0.709
-0.573,0.956,-0.292,-30.66,30.52,-87.36,-0.019,-0.4,-0.714
-0.503,1.188,-0.287,-26.53,26.95,-61.32,-0.014,-0.407,-0.712
-0.606,1.118,-0.242,1.4,25.55,-61.95,-0.014,-0.41,-0.706
-0.587,1.233,-0.254,13.3,25.2,-42.28,-0.009,-0.414,-0.707
-0.595,1.123,-0.246,34.02,27.65,-39.55,-0.008,-0.422,-0.714
-0.639,1.056,-0.202,37.59,29.19,-39.62,-0.008,-0.416,-0.719
-0.647,1.163,-0.202,38.57,31.15,-49.98,-0.003,-0.433,-0.718
-0.669,1.153,-0.212,50.12,31.15,-55.16,0.001,-0.436,-0.717
-0.679,1.1,-0.192,64.12,35.07,-40.88,0.011,-0.45,-0.733
-0.696,1.074,-0.153,71.61,37.24,-43.33,0.01,-0.457,-0.738
-0.76,1.016,-0.081,82.53,40.46,-48.86,0.014,-0.472,-0.748
-0.831,0.951,-0.114,93.169,52.639,-40.88,0.017,-0.479,-0.764
-0.822,0.976,-0.156,101.08,57.54,-31.15,0.017,-0.486,-0.774
-0.774,0.964,-0.062,108.71,53.69,-37.59,0.018,-0.498,-0.798
-0.79,0.944,-0.062,117.11,55.37,-34.16,0.019,-0.501,-0.805
-0.809,0.952,-0.085,105.63,60.899,-29.89,0.028,-0.514,-0.826
-0.812,0.976,-0.063,86.8,64.61,-27.93,0.026,-0.516,-0.841
-0.787,0.981,-0.107,72.1,66.22,-30.03,0.031,-0.521,-0.843
-0.762,0.956,-0.122,46.83,62.79,-40.46,0.037,-0.53,-0.85
-0.755,0.982,-0.054,31.78,57.05,-47.81,0.04,-0.532,-0.852
-0.763,0.855,-0.087,53.06,55.159,-50.89,0.047,-0.535,-0.873
-0.763,0.796,-0.107,65.45,50.82,-47.95,0.049,-0.54,-0.874
-0.791,0.78,-0.044,56.7,41.93,-56.7,0.06,-0.547,-0.892
-0.813,0.8,0.03,48.37,34.16,-61.53,0.065,-0.552,-0.895
-0.762,0.83,0.034,47.25,19.6,-64.4,0.07,-0.554,-0.9
-0.687,0.749,0.025,40.74,20.44,-66.01,0.084,-0.559,-0.911
-0.612,0.742,-0.073,28.56,29.89,-64.75,0.087,-0.561,-0.905
-0.53,0.817,-0.074,8.12,32.13,-67.48,0.103,-0.568,-0.917
-0.5,0.848,0.031,-9.1,26.39,-75.46,0.105,-0.568,-0.911
-0.492,0.867,0.047,-6.37,22.96,-73.57,0.125,-0.572,-0.912
-0.437,0.86,0.025,16.87,20.79,-63.7,0.126,-0.569,-0.921
-0.412,0.843,0.013,28.77,16.03,-61.11,0.133,-0.575,-0.92
-0.402,0.796,0.029,34.72,12.6,-61.11,0.146,-0.576,-0.925
-0.38,0.779,0.072,40.6,10.36,-57.61,0.154,-0.575,-0.931
-0.35,0.763,0.1,44.73,9.66,-53.13,0.163,-0.579,-0.938
-0.331,0.757,0.134,44.8,8.75,-49.77,0.174,-0.58,-0.944
-0.324,0.766,0.146,38.57,6.44,-47.11,0.175,-0.579,-0.952
-0.291,0.776,0.184,36.33,4.97,-45.36,0.186,-0.582,-0.956
-0.262,0.784,0.216,39.97,4.2,-42.07,0.191,-0.587,-0.957
-0.25,0.778,0.234,45.78,2.73,-37.1,0.19,-0.585,-0.96
-0.254,0.757,0.239,47.74,1.61,-29.61,0.195,-0.583,-0.968
-0.238,0.755,0.249,35.49,1.61,-24.92,0.205,-0.581,-0.973
-0.198,0.761,0.253,25.55,3.01,-21.49,0.208,-0.581,-0.979
-0.16,0.781,0.283,15.89,2.87,-19.46,0.21,-0.579,-0.985
-0.137,0.805,0.291,8.89,3.5,-18.27,0.216,-0.581,-0.985
-0.124,0.829,0.266,4.76,2.87,-17.85,0.216,-0.581,-0.986
-0.117,0.828,0.273,3.78,0.42,-18.27,0.217,-0.58,-0.989
-0.111,0.805,0.274,4.06,-0.42,-17.15,0.221,-0.583,-0.981
-0.087,0.812,0.28,0.28,-1.05,-15.61,0.224,-0.578,-0.988
-0.067,0.787,0.29,0.91,-1.47,-15.75,0.226,-0.579,-0.984
-0.077,0.716,0.329,3.01,-1.96,-15.4,0.227,-0.58,-0.984
-0.105,0.661,0.335,0.56,-2.03,-12.95,0.23,-0.58,-0.988
-0.1,0.707,0.256,-15.12,-0.07,-9.1,0.23,-0.579,-0.983
-0.1,0.709,0.236,-20.86,0.21,-12.46,0.231,-0.58,-0.976
-0.095,0.734,0.245,-21.91,0.07,-9.73,0.232,-0.577,-0.976
-0.089,0.74,0.271,-21.49,-0.84,-10.78,0.232,-0.578,-0.972
-0.08,0.692,0.296,-22.47,0.14,-15.19,0.236,-0.577,-0.967
-0.064,0.669,0.354,-31.29,1.19,-13.51,0.239,-0.579,-0.959
-0.077,0.704,0.436,-36.33,1.05,-8.47,0.244,-0.582,-0.957
-0.081,0.738,0.436,-35.0,1.47,-5.04,0.244,-0.58,-0.953
-0.063,0.758,0.375,-27.72,1.82,-3.08,0.242,-0.579,-0.954
-0.052,0.762,0.308,-21.56,-0.42,-1.19,0.244,-0.577,-0.951
-0.054,0.782,0.286,-12.74,-2.31,2.52,0.243,-0.578,-0.948
-0.029,0.97,0.287,-17.5,-6.93,-0.77,0.246,-0.58,-0.947
-0.044,1.003,0.334,-7.84,-6.72,-1.82,0.239,-0.579,-0.948
-0.083,0.967,0.342,14.77,-5.88,3.29,0.242,-0.581,-0.945
-0.065,0.917,0.335,24.5,-2.31,6.3,0.236,-0.579,-0.952
-0.059,0.879,0.277,19.46,-1.4,5.95,0.243,-0.579,-0.955
-0.05,0.932,0.22,-11.13,-2.59,3.08,0.239,-0.582,-0.951
-0.071,0.967,0.3,-17.29,-3.08,0.98,0.236,-0.578,-0.958
-0.061,0.978,0.292,-9.45,-0.42,3.57,0.235,-0.58,-0.946
-0.055,0.934,0.308,7.98,-1.54,-4.27,0.239,-0.576,-0.952
-0.071,0.907,0.31,9.03,-1.05,-3.15,0.241,-0.578,-0.952
-0.071,0.93,0.315,2.1,0.0,-3.01,0.242,-0.578,-0.951
-0.075,0.944,0.314,-0.42,-0.84,-3.71,0.246,-0.58,-0.946
-0.045,0.928,0.311,2.17,-1.33,-4.83,0.243,-0.576,-0.949
-0.075,0.889,0.295,6.58,-2.24,-2.03,0.244,-0.579,-0.954
-0.071,0.935,0.28,3.78,-3.57,-1.68,0.243,-0.581,-0.955
-0.065,0.947,0.288,7.84,-4.2,-1.82,0.242,-0.578,-0.96
-0.03,0.941,0.318,11.27,-3.29,-1.89,0.246,-0.577,-0.961
0.001,0.945,0.305,10.64,-3.08,-2.38,0.242,-0.578,-0.957
0.01,0.966,0.26,7.63,-4.48,-0.84,0.246,-0.581,-0.956
-0.019,0.949,0.269,4.83,-7.0,-0.91,0.24,-0.577,-0.959
-0.043,0.918,0.283,8.33,-7.0,0.07,0.238,-0.585,-0.963
-0.047,0.873,0.307,6.23,-5.81,0.28,0.236,-0.58,-0.967
-0.046,0.875,0.314,-1.82,-5.11,-0.77,0.242,-0.578,-0.959
-0.03,0.934,0.306,-7.49,-5.04,-0.49,0.242,-0.583,-0.968
-0.045,0.962,0.327,-5.04,-5.95,-0.35,0.24,-0.582,-0.965
-0.063,0.936,0.336,2.38,-5.88,-0.35,0.245,-0.58,-0.963
-0.059,0.907,0.326,6.09,-5.46,-0.63,0.241,-0.582,-0.967
-0.05,0.91,0.324,0.91,-5.04,-0.7,0.243,-0.576,-0.969
-0.035,0.949,0.333,-3.64,-4.97,-0.77,0.242,-0.58,-0.968
-0.043,0.979,0.347,-3.71,-5.32,-1.47,0.241,-0.582,-0.966
-0.03,0.986,0.341,-0.35,-4.13,-1.26,0.243,-0.579,-0.961
-0.03,0.953,0.337,4.13,-4.06,-1.4,0.24,-0.582,-0.967
-0.034,0.926,0.335,3.57,-3.57,-2.17,0.237,-0.582,-0.962
-0.033,0.913,0.332,1.82,-3.29,-2.73,0.241,-0.578,-0.967
-0.041,0.912,0.34,0.63,-4.2,-2.66,0.24,-0.579,-0.971
-0.049,0.915,0.338,0.56,-3.85,-1.96,0.238,-0.579,-0.965
-0.057,0.918,0.341,0.84,-3.71,-1.61,0.243,-0.582,-0.967
-0.055,0.929,0.329,1.75,-3.64,-1.47,0.249,-0.581,-0.969
-0.047,0.936,0.33,3.08,-4.41,-1.12,0.248,-0.579,-0.965
-0.046,0.916,0.34,4.97,-4.76,-1.19,0.246,-0.58,-0.977
-0.047,0.905,0.341,6.02,-4.76,-0.07,0.245,-0.576,-0.976
-0.038,0.905,0.34,3.78,-4.41,0.07,0.244,-0.578,-0.967
-0.04,0.908,0.351,0.84,-4.9,0.14,0.244,-0.575,-0.97
-0.029,0.929,0.336,-0.07,-4.27,0.49,0.246,-0.582,-0.971
-0.036,0.93,0.341,1.05,-4.69,0.42,0.24,-0.577,-0.976
-0.051,0.922,0.345,2.52,-4.62,0.0,0.239,-0.579,-0.975
-0.049,0.934,0.342,2.94,-3.64,0.42,0.246,-0.585,-0.968
-0.042,0.938,0.348,1.33,-3.57,0.07,0.242,-0.577,-0.967
-0.043,0.927,0.336,2.45,-3.99,0.14,0.245,-0.577,-0.967
-0.051,0.914,0.35,2.45,-4.27,0.56,0.247,-0.58,-0.972
-0.047,0.899,0.351,2.94,-4.34,1.05,0.244,-0.577,-0.976
-0.055,0.907,0.34,1.05,-4.48,1.82,0.25,-0.581,-0.97
-0.069,0.913,0.347,-0.07,-4.9,2.1,0.245,-0.578,-0.975
-0.059,0.922,0.353,0.77,-4.48,2.87,0.243,-0.578,-0.972
-0.052,0.911,0.35,5.25,-5.04,3.64,0.242,-0.579,-0.971
-0.057,0.902,0.36,6.23,-5.11,3.71,0.246,-0.576,-0.967
-0.067,0.902,0.363,6.3,-5.25,4.41,0.237,-0.578,-0.975
-0.078,0.914,0.365,5.04,-4.9,4.55,0.244,-0.575,-0.978
-0.098,0.907,0.358,3.92,-4.48,3.78,0.244,-0.573,-0.973
-0.107,0.918,0.348,1.4,-3.29,2.66,0.242,-0.575,-0.972
-0.102,0.917,0.337,0.84,-3.64,1.89,0.238,-0.576,-0.98
-0.096,0.91,0.334,1.12,-3.64,1.05,0.241,-0.576,-0.975
-0.094,0.899,0.343,2.24,-3.92,0.35,0.237,-0.576,-0.979
-0.077,0.894,0.354,3.78,-4.13,0.35,0.241,-0.573,-0.978
-0.053,0.894,0.348,6.37,-4.27,0.28,0.24,-0.58,-0.977
-0.019,0.865,0.351,11.69,-4.13,1.12,0.238,-0.575,-0.979
-0.025,0.861,0.366,13.3,-5.67,2.45,0.235,-0.574,-0.977
-0.041,0.873,0.388,13.51,-6.3,4.27,0.238,-0.576,-0.986
-0.036,0.883,0.397,14.21,-6.02,5.25,0.232,-0.578,-0.991
-0.005,0.878,0.393,15.33,-5.18,6.09,0.235,-0.575,-0.988
-0.006,0.872,0.388,14.14,-5.53,7.07,0.232,-0.577,-0.99
-0.037,0.877,0.396,9.45,-6.23,9.8,0.235,-0.578,-0.992
-0.076,0.897,0.403,4.55,-5.88,10.85,0.229,-0.572,-0.997
-0.087,0.903,0.402,1.54,-5.18,10.43,0.231,-0.578,-0.996
-0.084,0.903,0.395,0.0,-4.62,9.8,0.232,-0.581,-0.993
-0.064,0.904,0.388,-2.24,-3.29,8.96,0.232,-0.58,-0.992
-0.049,0.918,0.392,-5.46,-2.94,8.68,0.232,-0.581,-0.995
-0.061,0.97,0.416,-10.64,-2.94,7.35,0.227,-0.58,-0.992
-0.073,0.999,0.41,-10.71,-2.38,6.37,0.23,-0.579,-0.984
-0.089,1.01,0.403,-8.61,-1.89,4.76,0.227,-0.58,-0.985
-0.087,1.015,0.395,-4.9,-1.26,3.43,0.226,-0.582,-0.986
-0.072,1.011,0.386,-0.7,-0.84,1.4,0.225,-0.578,-0.985
-0.084,0.996,0.369,4.34,-1.47,0.49,0.226,-0.58,-0.987
-0.117,0.966,0.382,5.11,-2.1,-0.14,0.223,-0.582,-0.989
-0.113,0.965,0.401,4.55,-1.47,-0.56,0.227,-0.578,-0.983
-0.096,0.948,0.401,5.25,-1.33,-1.12,0.224,-0.582,-0.994
-0.084,0.928,0.391,6.58,-1.4,-1.4,0.229,-0.581,-0.993
-0.076,0.924,0.384,4.76,-0.7,-1.68,0.226,-0.583,-0.993
-0.079,0.911,0.372,4.55,-1.12,-2.59,0.225,-0.584,-0.999
-0.092,0.901,0.372,3.92,-0.98,-2.73,0.225,-0.58,-0.992
-0.087,0.888,0.368,4.06,-0.7,-3.01,0.227,-0.581,-0.991
-0.095,0.862,0.368,3.78,-1.19,-2.38,0.227,-0.579,-0.996
-0.093,0.837,0.361,2.45,-1.12,-1.47,0.228,-0.577,-0.991
-0.096,0.834,0.364,-1.05,-1.61,-0.07,0.222,-0.577,-0.997
-0.107,0.874,0.364,-5.67,-2.24,1.89,0.228,-0.578,-0.997
-0.094,0.938,0.371,-6.09,-2.38,2.45,0.23,-0.581,-0.991
-0.07,0.963,0.376,-1.19,-2.24,2.31,0.226,-0.582,-0.994
-0.055,0.958,0.395,4.06,-2.73,2.1,0.23,-0.581,-0.992
-0.052,0.924,0.391,9.03,-2.24,1.12,0.228,-0.577,-1.0
-0.053,0.888,0.356,9.59,-1.54,0.07,0.224,-0.58,-1.001
-0.085,0.87,0.344,4.34,-2.31,-1.05,0.225,-0.581,-0.996
-0.124,0.866,0.34,0.0,-2.8,-0.84,0.226,-0.582,-0.994
-0.139,0.872,0.347,-0.35,-2.73,-0.63,0.223,-0.581,-0.994
-0.126,0.869,0.356,-0.49,-2.52,-0.77,0.225,-0.583,-1.005
-0.123,0.856,0.352,0.0,-3.08,-0.7,0.226,-0.582,-1.001
-0.12,0.851,0.365,-0.91,-3.64,0.28,0.227,-0.58,-0.997
-0.101,0.868,0.378,-1.47,-3.64,2.1,0.23,-0.577,-0.995
-0.08,0.885,0.382,0.0,-3.57,3.15,0.229,-0.58,-0.996
-0.08,0.898,0.413,-0.35,-3.92,3.36,0.227,-0.581,-0.993
-0.077,0.9,0.4,2.24,-3.08,3.57,0.229,-0.579,-0.998
-0.085,0.885,0.374,3.71,-3.22,3.15,0.221,-0.578,-0.999
-0.128,0.869,0.372,0.91,-4.48,2.94,0.219,-0.574,-0.999
-0.144,0.885,0.38,-1.4,-2.8,3.5,0.227,-0.576,-0.999
-0.109,0.918,0.368,-2.24,-1.89,3.71,0.22,-0.579,-0.998
-0.115,0.933,0.382,-1.54,-2.52,3.43,0.221,-0.579,-0.994
-0.145,0.919,0.379,0.91,-2.94,3.01,0.219,-0.577,-0.996
-0.174,0.911,0.39,-0.14,-3.43,2.45,0.221,-0.576,-0.99
-0.156,0.912,0.4,-0.84,-3.08,1.68,0.224,-0.58,-0.993
-0.103,0.926,0.388,1.68,-2.03,1.47,0.217,-0.577,-0.999
-0.082,0.928,0.39,2.45,-3.01,1.54,0.221,-0.577,-0.993
-0.099,0.919,0.397,4.69,-3.36,1.47,0.221,-0.574,-0.99
-0.1,0.916,0.379,4.13,-1.61,0.0,0.218,-0.577,-0.994
-0.114,0.912,0.347,1.96,-1.82,-2.1,0.223,-0.576,-0.996
-0.153,0.892,0.335,0.7,-2.66,-2.8,0.217,-0.571,-1.006
-0.181,0.864,0.338,4.97,-3.71,-1.05,0.223,-0.576,-1.001
-0.161,0.832,0.356,7.56,-3.78,1.47,0.223,-0.577,-0.999
-0.152,0.82,0.357,6.23,-4.62,3.64,0.22,-0.573,-1.0
-0.161,0.81,0.338,2.1,-5.67,4.76,0.222,-0.574,-1.001
-0.172,0.783,0.288,-0.07,-6.02,4.76,0.217,-0.573,-1.007
-0.187,0.754,0.231,-0.35,-7.56,4.97,0.22,-0.574,-1.008
-0.205,0.777,0.298,-7.42,-12.67,5.53,0.218,-0.574,-1.004
-0.2,0.76,0.303,-2.94,-13.51,6.37,0.217,-0.574,-1.002
-0.163,0.713,0.305,9.31,-14.14,8.75,0.217,-0.573,-1.0
-0.111,0.653,0.313,19.6,-14.77,11.9,0.216,-0.573,-1.004
-0.085,0.59,0.32,23.1,-15.54,16.59,0.206,-0.573,-1.004
-0.12,0.652,0.383,5.81,-14.49,20.02,0.204,-0.574,-1.007
-0.15,0.753,0.346,-1.82,-11.41,23.31,0.202,-0.575,-1.005
-0.165,0.816,0.314,0.7,-10.01,23.17,0.203,-0.574,-1.001
-0.183,0.812,0.293,4.69,-9.73,20.3,0.199,-0.576,-1.009
-0.223,0.797,0.302,2.24,-10.29,18.13,0.197,-0.576,-1.009
-0.295,0.838,0.406,-12.46,-10.01,16.73,0.193,-0.578,-0.999
-0.304,0.884,0.425,-17.29,-7.42,16.1,0.196,-0.577,-1.003
-0.307,0.889,0.388,-15.47,-4.83,12.53,0.19,-0.578,-0.997
-0.316,0.885,0.363,-13.23,-4.13,9.38,0.188,-0.58,-0.993
-0.335,0.899,0.331,-12.53,-4.76,7.7,0.19,-0.582,-0.995
-0.343,0.94,0.317,-6.72,-6.3,8.96,0.184,-0.581,-0.996
-0.348,0.955,0.349,3.85,-8.68,10.85,0.179,-0.578,-0.991
-0.346,0.92,0.383,14.84,-9.52,11.41,0.179,-0.576,-0.994
-0.331,0.859,0.361,18.62,-7.7,11.55,0.183,-0.574,-0.994
-0.32,0.82,0.292,13.09,-6.79,12.67,0.18,-0.575,-0.993
-0.348,0.806,0.228,-3.36,-10.36,14.7,0.178,-0.579,-0.997
-0.465,0.808,0.187,-13.16,-14.84,17.99,0.175,-0.575,-0.998
-0.524,0.881,0.289,-25.2,-18.41,25.13,0.169,-0.574,-0.995
-0.509,0.952,0.349,-28.7,-18.76,32.97,0.169,-0.579,-0.992
-0.44,0.966,0.351,-22.89,-18.69,38.92,0.157,-0.578,-0.985
-0.355,0.921,0.312,-17.64,-20.44,39.9,0.151,-0.577,-0.983
-0.267,0.878,0.276,-16.17,-24.57,39.55,0.146,-0.57,-0.982
-0.187,0.925,0.366,-24.08,-31.29,40.95,0.14,-0.573,-0.979
-0.081,1.062,0.468,-27.93,-30.45,42.98,0.137,-0.571,-0.976
-0.084,1.116,0.465,-21.0,-27.58,42.42,0.127,-0.57,-0.968
-0.16,1.126,0.426,-13.3,-25.34,39.69,0.125,-0.565,-0.97
-0.233,1.087,0.362,-11.69,-22.61,34.51,0.121,-0.565,-0.963
-0.243,1.076,0.353,-16.1,-19.95,27.72,0.112,-0.569,-0.956
-0.211,1.09,0.418,-21.63,-17.15,17.29,0.105,-0.566,-0.96
-0.194,1.038,0.391,-10.92,-14.7,11.9,0.106,-0.567,-0.956
-0.215,0.982,0.351,0.07,-16.1,9.66,0.106,-0.564,-0.956
-0.261,0.915,0.307,4.41,-18.97,6.79,0.099,-0.566,-0.956
-0.324,0.837,0.252,3.57,-23.17,2.8,0.102,-0.565,-0.96
-0.392,0.787,0.2,-5.46,-32.76,0.49,0.097,-0.56,-0.955
-0.417,0.786,0.239,-9.17,-39.06,4.62,0.097,-0.567,-0.952
-0.409,0.797,0.284,-8.75,-41.51,10.57,0.096,-0.56,-0.95
-0.406,0.771,0.24,-1.68,-43.12,16.17,0.097,-0.558,-0.949
-0.425,0.719,0.167,-6.58,-46.06,19.04,0.093,-0.558,-0.945
-0.458,0.704,0.127,-21.42,-50.54,19.18,0.091,-0.558,-0.945
-0.501,0.748,0.19,-62.51,-52.08,13.37,0.087,-0.552,-0.941
-0.48,0.782,0.159,-74.83,-48.86,9.17,0.082,-0.555,-0.924
-0.458,0.795,0.113,-80.15,-44.31,6.93,0.086,-0.557,-0.917
-0.445,0.766,0.022,-83.16,-39.34,5.04,0.086,-0.551,-0.901
-0.434,0.731,-0.124,-90.86,-36.89,5.25,0.08,-0.547,-0.895
-0.409,0.769,-0.234,-121.94,-45.64,6.02,0.078,-0.542,-0.886
-0.468,0.944,-0.065,-159.53,-53.2,-3.78,0.081,-0.541,-0.858
-0.608,0.986,0.138,-187.18,-51.59,-18.13,0.082,-0.533,-0.836
-0.731,0.912,0.161,-184.73,-32.76,-19.67,0.082,-0.522,-0.806
-0.692,0.904,-0.146,-163.66,-18.76,-4.62,0.081,-0.516,-0.8
-0.586,0.935,-0.372,-155.89,-22.4,5.74,0.08,-0.506,-0.784
-0.552,1.006,-0.363,-157.71,-33.67,8.47,0.085,-0.49,-0.757
-0.537,1.042,-0.3,-135.52,-40.11,14.21,0.083,-0.481,-0.747
-0.502,1.108,-0.243,-100.73,-42.98,21.49,0.075,-0.467,-0.729
-0.506,1.061,-0.252,-61.46,-44.8,28.98,0.074,-0.459,-0.724
-0.501,1.022,-0.299,-31.15,-49.42,34.16,0.073,-0.457,-0.719
-0.455,0.979,-0.366,-10.85,-44.45,38.5,0.069,-0.459,-0.721
-0.215,1.175,-0.351,-9.94,-39.27,23.59,0.067,-0.456,-0.716
-0.277,1.023,-0.328,-3.29,-42.14,38.71,0.065,-0.452,-0.724
-0.329,1.167,-0.266,-5.04,-37.24,49.0,0.062,-0.447,-0.721
-0.329,1.174,-0.239,-25.27,-35.56,33.18,0.061,-0.445,-0.721
-0.312,1.121,-0.206,-33.88,-34.44,17.92,0.064,-0.441,-0.718
-0.228,1.48,-0.156,0.21,-36.12,30.24,0.06,-0.44,-0.719
-0.308,1.333,-0.094,96.74,-27.51,28.14,0.056,-0.444,-0.724
-0.389,0.713,-0.206,138.32,-13.09,18.76,0.057,-0.45,-0.739
-0.381,0.901,-0.347,152.95,-9.03,33.46,0.055,-0.463,-0.753
-0.305,0.889,-0.444,170.31,-5.11,23.31,0.053,-0.468,-0.768
-0.448,0.961,-0.476,188.79,-11.76,10.99,0.056,-0.491,-0.791
-0.458,1.088,-0.432,177.87,-23.8,-3.22,0.051,-0.488,-0.807
-0.397,1.009,-0.22,137.97,-27.51,-7.49,0.056,-0.498,-0.819
-0.437,0.99,-0.005,64.26,-17.85,-13.72,0.059,-0.503,-0.826
-0.452,0.881,0.036,26.81,-11.83,-14.56,0.057,-0.512,-0.829
-0.44,0.815,-0.004,2.59,-4.9,-6.86,0.065,-0.513,-0.831
-0.432,0.783,-0.098,-10.08,-0.98,-1.54,0.067,-0.512,-0.826
-0.427,0.792,-0.18,-15.82,-0.49,2.24,0.063,-0.506,-0.82
-0.414,0.817,-0.247,-7.42,-3.92,7.14,0.063,-0.507,-0.818
-0.443,0.854,-0.238,3.15,-8.54,11.27,0.063,-0.507,-0.823
-0.461,0.868,-0.211,13.23,-13.37,14.63,0.06,-0.504,-0.824
-0.477,0.882,-0.183,18.97,-17.22,17.85,0.057,-0.507,-0.822
-0.49,0.902,-0.148,21.91,-19.95,17.92,0.057,-0.509,-0.826
-0.497,0.901,-0.118,19.04,-21.42,14.63,0.057,-0.51,-0.831
-0.502,0.862,-0.095,12.39,-19.32,11.41,0.055,-0.509,-0.832
-0.51,0.841,-0.097,4.55,-16.24,8.89,0.054,-0.514,-0.833
-0.505,0.824,-0.114,-0.91,-13.72,6.3,0.055,-0.507,-0.828
-0.504,0.832,-0.138,-4.69,-11.76,6.02,0.056,-0.512,-0.83
-0.513,0.848,-0.158,-6.44,-10.92,7.14,0.057,-0.505,-0.83
-0.52,0.859,-0.173,-6.37,-11.27,7.49,0.059,-0.503,-0.831
-0.526,0.866,-0.174,-5.11,-12.18,6.23,0.053,-0.506,-0.832
-0.519,0.853,-0.158,-3.15,-12.18,4.55,0.056,-0.507,-0.823
-0.516,0.841,-0.148,-1.89,-12.18,3.57,0.051,-0.51,-0.821
-0.512,0.834,-0.138,-1.12,-11.41,3.64,0.054,-0.508,-0.823
-0.506,0.827,-0.132,-1.12,-10.29,4.97,0.049,-0.508,-0.828
-0.511,0.838,-0.133,-2.17,-9.52,5.11,0.053,-0.51,-0.827
-0.519,0.84,-0.139,-3.5,-9.1,5.04,0.053,-0.509,-0.828
-0.524,0.837,-0.148,-3.78,-8.33,4.69,0.057,-0.506,-0.827
-0.53,0.835,-0.155,-3.29,-7.49,4.62,0.052,-0.509,-0.827
-0.535,0.829,-0.16,-3.01,-6.79,3.99,0.057,-0.51,-0.825
-0.536,0.824,-0.164,-3.36,-5.95,3.08,0.052,-0.507,-0.826
-0.538,0.82,-0.176,-3.99,-5.32,2.8,0.053,-0.506,-0.824
-0.535,0.83,-0.19,-3.71,-4.69,2.59,0.056,-0.504,-0.825
-0.53,0.833,-0.191,-3.64,-4.69,2.03,0.053,-0.5,-0.82
-0.528,0.832,-0.194,-3.71,-4.62,1.47,0.053,-0.504,-0.826
-0.528,0.834,-0.199,-3.78,-4.48,1.33,0.053,-0.501,-0.821
-0.526,0.833,-0.199,-3.22,-4.69,1.33,0.054,-0.507,-0.826
-0.527,0.832,-0.197,-2.87,-4.9,1.05,0.052,-0.506,-0.819
-0.528,0.831,-0.191,-2.17,-4.9,0.84,0.051,-0.504,-0.826
-0.525,0.836,-0.193,-2.17,-4.48,0.28,0.051,-0.504,-0.826
-0.522,0.843,-0.193,-1.75,-4.2,0.28,0.054,-0.503,-0.832
-0.518,0.835,-0.187,-1.12,-4.27,-0.21,0.057,-0.505,-0.825
-0.518,0.827,-0.182,-1.12,-3.92,-1.05,0.05,-0.5,-0.823
-0.519,0.83,-0.184,-1.54,-3.85,-1.19,0.049,-0.504,-0.82
-0.518,0.832,-0.187,-1.68,-3.71,-1.4,0.052,-0.502,-0.827
-0.514,0.838,-0.189,-1.68,-3.71,-1.26,0.051,-0.503,-0.819
-0.513,0.836,-0.19,-1.47,-3.64,-1.12,0.051,-0.507,-0.819
-0.516,0.838,-0.198,-1.05,-3.36,-0.42,0.048,-0.504,-0.825
-0.514,0.834,-0.196,-0.35,-3.99,-0.14,0.052,-0.502,-0.824
