ax,ay,az,gx,gy,gz,mx,my,mz
-0.976,0.162,0.18,0.91,-9.1,12.81,-0.233,-0.271,-0.922
-0.979,0.165,0.184,0.98,-9.31,13.44,-0.233,-0.268,-0.922
-0.979,0.168,0.217,1.19,-8.61,13.93,-0.234,-0.272,-0.92
-0.983,0.173,0.189,1.33,-8.33,13.72,-0.239,-0.273,-0.919
-0.985,0.175,0.191,1.54,-8.05,13.44,-0.236,-0.268,-0.921
-0.989,0.175,0.192,1.61,-8.05,12.95,-0.237,-0.268,-0.921
-0.993,0.178,0.194,1.54,-7.98,12.25,-0.236,-0.267,-0.922
-0.994,0.176,0.196,1.47,-7.28,10.99,-0.235,-0.265,-0.919
-0.996,0.175,0.195,0.63,-6.09,9.17,-0.234,-0.261,-0.922
-0.999,0.176,0.197,-0.07,-5.32,8.12,-0.236,-0.259,-0.919
-1.0,0.176,0.197,-0.56,-3.99,6.72,-0.233,-0.256,-0.919
-1.005,0.174,0.195,-1.47,-2.52,5.32,-0.234,-0.264,-0.922
-1.011,0.169,0.19,-2.66,-1.05,3.15,-0.233,-0.263,-0.918
-1.012,0.168,0.189,-4.55,1.12,2.1,-0.229,-0.259,-0.921
-1.002,0.165,0.185,-5.6,1.89,0.98,-0.233,-0.266,-0.925
-1.001,0.163,0.182,-6.58,2.8,0.35,-0.231,-0.254,-0.923
-0.997,0.161,0.178,-7.0,3.78,-0.42,-0.232,-0.258,-0.923
-0.981,0.154,0.177,-6.86,5.6,-0.77,-0.232,-0.257,-0.92
-0.961,0.146,0.175,-7.49,7.14,-2.52,-0.233,-0.258,-0.92
-0.942,0.124,0.177,-10.57,9.8,-3.29,-0.234,-0.257,-0.922
-0.943,0.062,0.196,-18.13,12.74,-3.36,-0.234,-0.256,-0.923
-0.954,0.038,0.215,-29.33,16.31,-4.76,-0.236,-0.259,-0.923
-0.944,0.031,0.223,-42.35,20.72,-6.79,-0.234,-0.26,-0.925
-0.926,0.018,0.251,-52.64,23.8,-7.21,-0.239,-0.258,-0.933
-0.936,-0.042,0.269,-61.46,25.62,-5.32,-0.239,-0.261,-0.927
-0.979,-0.089,0.265,-83.65,33.25,0.77,-0.24,-0.258,-0.924
-0.99,-0.085,0.248,-104.79,43.12,4.34,-0.237,-0.253,-0.927
-0.922,-0.014,0.214,-123.62,43.68,5.18,-0.235,-0.249,-0.929
-0.854,0.1,0.162,-127.96,37.94,8.47,-0.237,-0.246,-0.928
-0.778,0.206,0.126,-116.41,26.39,12.32,-0.24,-0.243,-0.923
-0.737,0.251,0.101,-92.54,12.6,16.1,-0.242,-0.234,-0.921
-0.743,0.276,0.094,-52.01,-4.55,22.47,-0.239,-0.234,-0.922
-0.808,0.277,0.103,-27.86,-12.53,22.96,-0.239,-0.232,-0.922
-0.867,0.256,0.131,-4.48,-17.01,25.34,-0.241,-0.227,-0.917
-0.916,0.225,0.149,14.0,-18.34,28.42,-0.242,-0.222,-0.925
-0.964,0.196,0.165,24.64,-18.48,29.82,-0.24,-0.218,-0.922
-0.982,0.177,0.178,30.03,-15.54,30.24,-0.245,-0.22,-0.926
-0.947,0.154,0.185,30.8,-10.43,26.74,-0.248,-0.207,-0.92
-0.899,0.129,0.185,20.86,-9.94,22.26,-0.247,-0.209,-0.912
-0.907,0.132,0.213,11.9,-10.64,18.06,-0.248,-0.207,-0.921
-0.879,0.129,0.236,3.36,-9.94,13.09,-0.256,-0.207,-0.913
-0.809,0.118,0.25,-3.92,-8.4,6.72,-0.254,-0.211,-0.914
-0.751,0.12,0.23,-10.5,-6.79,0.14,-0.252,-0.209,-0.91
-0.765,0.145,0.194,-14.63,-7.84,-4.9,-0.249,-0.207,-0.913
-0.926,0.19,0.247,-6.58,-11.34,-5.25,-0.248,-0.209,-0.91
-0.972,0.205,0.28,7.63,-6.79,-3.85,-0.247,-0.205,-0.915
-0.902,0.175,0.221,23.66,-2.66,-3.5,-0.249,-0.206,-0.91
-0.922,0.141,0.152,34.79,-3.36,-0.84,-0.25,-0.208,-0.911
-1.088,0.153,0.174,41.51,-6.58,4.69,-0.251,-0.21,-0.911
-1.22,0.165,0.205,49.909,-5.67,10.08,-0.246,-0.208,-0.913
-1.111,0.121,0.224,52.08,-9.87,7.56,-0.249,-0.203,-0.916
-1.064,0.106,0.198,47.39,-16.87,4.41,-0.249,-0.21,-0.913
-1.11,0.119,0.181,41.16,-20.09,2.73,-0.25,-0.21,-0.917
-1.165,0.124,0.179,38.5,-17.36,0.63,-0.247,-0.213,-0.916
-1.216,0.121,0.203,38.71,-14.28,-2.66,-0.248,-0.218,-0.909
-1.179,0.098,0.247,42.14,-9.31,-7.21,-0.245,-0.217,-0.911
-1.016,0.066,0.215,44.03,-5.11,-10.29,-0.248,-0.222,-0.912
-0.923,0.039,0.139,41.65,-1.96,-11.13,-0.248,-0.222,-0.917
-0.997,0.047,0.124,37.66,-3.22,-10.64,-0.248,-0.223,-0.917
-1.122,0.067,0.15,35.42,-2.38,-11.13,-0.248,-0.223,-0.922
-1.068,0.04,0.163,36.4,-0.07,-12.53,-0.243,-0.23,-0.916
-0.977,0.025,0.129,33.46,-3.08,-12.53,-0.245,-0.229,-0.919
-0.991,0.035,0.088,27.86,-8.4,-10.71,-0.245,-0.233,-0.918
-1.094,0.066,0.083,24.71,-11.62,-7.28,-0.243,-0.239,-0.923
-1.153,0.084,0.099,27.37,-10.78,-5.11,-0.244,-0.243,-0.919
-1.119,0.066,0.118,31.22,-10.57,-4.97,-0.242,-0.244,-0.922
-1.004,0.045,0.103,31.57,-10.64,-4.27,-0.24,-0.245,-0.919
-1.023,0.031,0.096,28.0,-11.27,-2.66,-0.238,-0.244,-0.917
-1.101,0.022,0.11,20.93,-9.45,-1.75,-0.242,-0.245,-0.915
-1.097,0.015,0.121,11.2,-4.83,-3.15,-0.242,-0.243,-0.925
-1.023,0.006,0.12,1.54,-1.47,-5.6,-0.244,-0.243,-0.916
-0.988,0.013,0.096,-11.27,-0.42,-6.51,-0.244,-0.246,-0.923
-1.052,0.032,0.098,-18.34,-1.47,-6.86,-0.24,-0.243,-0.918
-1.11,0.042,0.118,-21.77,-1.89,-6.65,-0.235,-0.243,-0.919
-1.089,0.043,0.152,-21.0,-3.08,-5.95,-0.241,-0.249,-0.914
-1.003,0.031,0.159,-19.39,-5.25,-5.11,-0.24,-0.248,-0.912
-0.969,0.029,0.144,-17.78,-9.45,-2.59,-0.238,-0.245,-0.913
-1.053,0.044,0.165,-15.4,-9.87,-0.07,-0.236,-0.248,-0.911
-1.043,0.04,0.193,-11.97,-6.23,1.26,-0.238,-0.248,-0.913
-0.966,0.026,0.206,-10.01,-3.92,1.61,-0.234,-0.241,-0.91
-0.924,0.026,0.188,-9.38,-4.06,2.94,-0.236,-0.246,-0.907
-0.969,0.046,0.174,-9.03,-5.53,6.09,-0.236,-0.239,-0.909
-1.044,0.069,0.181,-5.46,-4.83,10.5,-0.241,-0.241,-0.902
-1.063,0.069,0.183,-2.73,-4.55,12.04,-0.237,-0.242,-0.908
-1.029,0.067,0.181,-1.75,-6.02,13.79,-0.239,-0.238,-0.903
-0.994,0.073,0.162,-1.82,-7.56,15.75,-0.243,-0.237,-0.904
-0.989,0.088,0.15,-2.1,-8.96,17.15,-0.241,-0.235,-0.905
-1.025,0.099,0.157,-1.54,-10.08,17.64,-0.242,-0.228,-0.905
-1.047,0.104,0.175,0.14,-9.94,17.78,-0.243,-0.227,-0.906
-0.974,0.093,0.188,3.5,-9.59,17.08,-0.243,-0.224,-0.901
-0.935,0.091,0.174,4.13,-9.17,16.03,-0.244,-0.226,-0.902
-0.95,0.093,0.162,3.99,-8.19,14.91,-0.243,-0.223,-0.899
-0.995,0.095,0.17,4.13,-5.95,13.65,-0.248,-0.225,-0.901
-0.991,0.094,0.182,4.41,-2.17,11.69,-0.246,-0.218,-0.895
-0.931,0.078,0.171,3.57,0.77,8.89,-0.242,-0.219,-0.907
-0.913,0.074,0.141,0.77,1.19,7.0,-0.245,-0.217,-0.904
-1.009,0.095,0.129,-2.59,-0.07,6.09,-0.246,-0.221,-0.904
-1.044,0.101,0.131,-2.24,1.4,5.74,-0.244,-0.217,-0.901
-1.012,0.094,0.143,-1.26,1.19,4.2,-0.247,-0.216,-0.908
-0.954,0.088,0.132,-0.98,-0.56,2.94,-0.247,-0.22,-0.903
-0.937,0.084,0.108,-0.98,-2.66,2.52,-0.248,-0.217,-0.903
-0.994,0.089,0.109,-0.84,-3.99,2.31,-0.241,-0.223,-0.903
-1.021,0.081,0.142,1.26,-2.1,0.77,-0.243,-0.218,-0.908
-0.965,0.06,0.142,1.54,-2.17,-1.19,-0.248,-0.217,-0.911
-0.957,0.057,0.131,0.0,-3.57,-1.54,-0.243,-0.222,-0.906
-0.998,0.069,0.132,-0.91,-4.55,-1.47,-0.25,-0.217,-0.91
-1.012,0.067,0.14,-0.35,-3.08,-1.82,-0.249,-0.218,-0.903
-1.0,0.058,0.154,0.56,-2.8,-2.17,-0.25,-0.22,-0.901
-0.972,0.049,0.154,1.4,-3.01,-1.96,-0.245,-0.221,-0.901
-0.969,0.045,0.144,1.89,-3.15,-1.19,-0.25,-0.218,-0.899
-1.003,0.047,0.142,1.4,-2.59,-0.91,-0.25,-0.219,-0.902
-1.05,0.049,0.154,1.26,-2.17,-0.98,-0.252,-0.224,-0.903
-1.044,0.048,0.163,1.05,-0.98,-1.89,-0.249,-0.22,-0.904
-0.985,0.036,0.156,0.7,-0.21,-3.15,-0.254,-0.251,-0.903
-0.962,0.034,0.138,-0.7,-0.7,-3.92,-0.251,-0.219,-0.905
-1.009,0.044,0.138,-1.75,-1.19,-4.27,-0.247,-0.221,-0.907
-1.052,0.041,0.154,-0.77,0.7,-4.69,-0.256,-0.222,-0.905
-1.003,0.025,0.157,0.0,1.61,-4.97,-0.25,-0.221,-0.901
-0.966,0.019,0.143,-0.56,0.91,-5.11,-0.247,-0.218,-0.902
-0.995,0.026,0.144,-1.12,-0.77,-4.48,-0.252,-0.222,-0.907
-1.036,0.034,0.151,0.14,-0.91,-2.8,-0.248,-0.218,-0.905
-1.017,0.022,0.153,1.33,1.4,-1.68,-0.249,-0.221,-0.908
-0.966,0.01,0.142,0.35,2.1,-1.4,-0.248,-0.217,-0.904
-0.983,0.026,0.129,-1.61,0.28,-0.35,-0.246,-0.221,-0.907
-1.046,0.047,0.13,-1.68,-1.26,0.98,-0.245,-0.223,-0.909
-1.078,0.052,0.137,-0.21,-1.47,1.75,-0.246,-0.226,-0.906
-1.064,0.044,0.146,2.38,-1.89,2.17,-0.252,-0.225,-0.905
-1.016,0.036,0.142,3.01,-2.45,2.38,-0.249,-0.225,-0.911
-0.989,0.034,0.132,1.4,-3.29,2.38,-0.249,-0.222,-0.915
-1.013,0.036,0.137,0.14,-3.29,1.61,-0.249,-0.224,-0.915
-1.078,0.043,0.151,-0.98,-2.31,1.47,-0.249,-0.221,-0.912
-1.068,0.042,0.157,-0.63,-1.68,1.26,-0.249,-0.219,-0.909
-1.046,0.037,0.158,0.07,-1.96,1.54,-0.249,-0.221,-0.911
-1.042,0.04,0.146,-0.63,-2.52,1.82,-0.252,-0.22,-0.908
-1.09,0.049,0.142,-2.24,-3.15,2.24,-0.25,-0.224,-0.912
-1.131,0.058,0.149,-3.15,-1.33,1.54,-0.248,-0.222,-0.906
-1.121,0.054,0.152,-3.71,-0.91,0.7,-0.25,-0.216,-0.912
-1.115,0.056,0.154,-4.55,-1.33,0.7,-0.248,-0.216,-0.911
-1.128,0.058,0.153,-5.81,-2.24,0.07,-0.25,-0.216,-0.901
-1.164,0.066,0.153,-6.72,-2.66,-0.49,-0.254,-0.217,-0.908
-1.187,0.067,0.153,-7.07,-1.96,-1.12,-0.248,-0.226,-0.906
-1.188,0.07,0.159,-6.86,-1.4,-1.68,-0.249,-0.219,-0.904
-1.183,0.073,0.167,-6.79,-1.54,-2.52,-0.251,-0.218,-0.908
-1.169,0.072,0.167,-6.51,-2.17,-3.43,-0.252,-0.218,-0.908
-1.178,0.066,0.168,-7.56,-2.87,-4.48,-0.248,-0.215,-0.902
-1.186,0.065,0.176,-8.47,-2.8,-4.83,-0.252,-0.217,-0.906
-1.169,0.064,0.177,-10.29,-1.61,-6.23,-0.25,-0.22,-0.905
-1.15,0.063,0.186,-10.71,-1.26,-7.14,-0.249,-0.218,-0.903
-1.129,0.061,0.188,-10.22,-0.35,-7.7,-0.253,-0.22,-0.903
-1.114,0.048,0.183,-8.33,0.84,-6.79,-0.247,-0.221,-0.9
-1.125,0.038,0.187,-7.63,1.61,-5.46,-0.25,-0.22,-0.908
-1.112,0.032,0.19,-7.21,2.87,-4.83,-0.251,-0.22,-0.9
-1.067,0.022,0.188,-7.7,3.5,-3.71,-0.25,-0.221,-0.902
-1.027,0.027,0.186,-13.09,2.17,-3.5,-0.253,-0.22,-0.9
-1.004,0.045,0.186,-16.24,1.33,-3.92,-0.249,-0.221,-0.905
-0.967,0.054,0.185,-16.31,2.31,-3.78,-0.246,-0.218,-0.909
-0.927,0.06,0.183,-14.84,3.92,-3.71,-0.245,-0.22,-0.903
-0.888,0.07,0.19,-12.81,5.88,-4.34,-0.244,-0.22,-0.908
-0.835,0.074,0.19,-9.94,8.89,-5.04,-0.246,-0.218,-0.907
-0.748,0.059,0.179,-7.35,13.65,-8.47,-0.249,-0.223,-0.915
-0.726,0.048,0.175,-8.96,14.84,-11.83,-0.249,-0.224,-0.92
-0.733,0.053,0.18,-13.3,15.26,-14.98,-0.243,-0.226,-0.919
-0.738,0.06,0.187,-16.45,17.5,-18.34,-0.242,-0.23,-0.916
-0.724,0.065,0.186,-17.78,20.58,-19.88,-0.242,-0.231,-0.917
-0.708,0.06,0.176,-18.06,23.17,-20.72,-0.246,-0.23,-0.923
-0.709,0.059,0.164,-20.02,26.46,-20.72,-0.244,-0.232,-0.925
-0.731,0.059,0.154,-22.47,28.07,-19.88,-0.245,-0.235,-0.938
-0.761,0.062,0.137,-25.62,29.33,-18.76,-0.242,-0.238,-0.933
-0.794,0.072,0.122,-29.33,29.68,-17.5,-0.241,-0.24,-0.934
-0.83,0.082,0.11,-32.41,28.56,-15.75,-0.243,-0.244,-0.946
-0.866,0.088,0.101,-34.02,24.92,-13.65,-0.243,-0.245,-0.939
-0.891,0.091,0.09,-36.26,20.23,-11.06,-0.245,-0.244,-0.941
-0.914,0.093,0.092,-38.43,8.4,-5.6,-0.238,-0.246,-0.942
-0.938,0.119,0.115,-37.17,-0.84,-1.82,-0.242,-0.247,-0.939
-0.938,0.133,0.131,-32.2,-10.08,2.52,-0.244,-0.242,-0.945
-0.922,0.15,0.143,-24.22,-19.67,7.28,-0.245,-0.241,-0.932
-0.906,0.163,0.158,-13.72,-27.09,11.34,-0.244,-0.24,-0.926
-0.881,0.179,0.187,-0.98,-33.32,14.21,-0.246,-0.236,-0.921
-0.85,0.183,0.202,20.93,-38.99,16.1,-0.247,-0.235,-0.917
-0.838,0.175,0.211,34.51,-41.23,16.24,-0.242,-0.232,-0.917
-0.851,0.167,0.212,46.41,-42.49,15.19,-0.244,-0.234,-0.91
-0.876,0.162,0.194,56.0,-42.07,14.14,-0.241,-0.231,-0.901
-0.905,0.186,0.201,65.24,-41.65,13.23,-0.241,-0.232,-0.904
-0.94,0.196,0.224,78.75,-43.4,12.53,-0.245,-0.233,-0.904
-1.011,0.155,0.235,95.129,-48.93,12.88,-0.245,-0.235,-0.902
-1.138,0.119,0.227,98.07,-49.35,14.98,-0.237,-0.234,-0.905
-1.236,0.089,0.238,95.76,-45.99,17.92,-0.239,-0.238,-0.893
-1.298,0.068,0.264,87.29,-39.83,20.3,-0.24,-0.238,-0.894
-1.249,0.048,0.286,72.03,-32.48,20.93,-0.24,-0.235,-0.893
-1.138,0.038,0.296,51.1,-25.69,18.48,-0.241,-0.231,-0.895
-1.013,0.059,0.282,15.82,-16.52,13.86,-0.237,-0.234,-0.898
-0.971,0.079,0.262,-4.97,-9.17,7.77,-0.239,-0.236,-0.89
-0.954,0.106,0.25,-20.93,-2.45,0.42,-0.239,-0.235,-0.886
-0.946,0.131,0.245,-31.57,6.58,-6.79,-0.238,-0.236,-0.89
-0.946,0.155,0.243,-53.62,18.41,-15.26,-0.238,-0.235,-0.889
-0.966,0.182,0.225,-32.41,23.87,-17.71,-0.234,-0.239,-0.901
-0.995,0.191,0.202,-25.48,27.86,-19.39,-0.239,-0.235,-0.9
-1.028,0.191,0.188,-16.87,30.66,-20.23,-0.233,-0.238,-0.905
-1.064,0.179,0.179,-9.8,32.55,-20.79,-0.235,-0.239,-0.906
-1.088,0.153,0.175,-6.44,32.76,-20.65,-0.234,-0.238,-0.907
-1.088,0.132,0.17,-10.78,30.73,-21.35,-0.239,-0.241,-0.916
-1.05,0.123,0.157,-18.13,27.23,-22.82,-0.235,-0.247,-0.918
-1.011,0.139,0.149,-25.27,23.66,-24.5,-0.24,-0.251,-0.923
-0.966,0.159,0.143,-28.7,20.65,-26.6,-0.242,-0.256,-0.922
-0.919,0.181,0.125,-28.35,18.62,-27.86,-0.243,-0.26,-0.921
-0.895,0.218,0.117,-22.05,14.56,-28.42,-0.236,-0.257,-0.925
-0.888,0.261,0.122,-8.47,10.15,-27.23,-0.24,-0.262,-0.919
-0.887,0.289,0.132,25.55,1.19,-25.34,-0.236,-0.263,-0.924
-0.911,0.284,0.136,52.149,-4.34,-22.61,-0.236,-0.267,-0.93
-0.957,0.242,0.143,76.51,-8.33,-18.9,-0.233,-0.274,-0.94
-0.999,0.184,0.151,93.1,-9.66,-14.63,-0.232,-0.275,-0.94
-1.022,0.129,0.158,97.72,-8.33,-12.04,-0.231,-0.281,-0.941
-1.025,0.061,0.173,85.05,-4.27,-9.94,-0.232,-0.283,-0.939
-1.01,0.031,0.176,65.24,-1.19,-9.73,-0.233,-0.283,-0.95
-0.988,0.015,0.178,39.69,1.75,-10.5,-0.229,-0.289,-0.948
-0.97,0.016,0.172,11.41,4.06,-11.48,-0.229,-0.293,-0.954
-0.959,0.047,0.162,-14.14,5.74,-13.16,-0.227,-0.294,-0.952
-0.948,0.117,0.15,-39.76,5.95,-13.44,-0.227,-0.3,-0.956
-0.95,0.155,0.144,-45.78,4.55,-12.32,-0.224,-0.294,-0.946
-0.953,0.186,0.142,-44.59,2.45,-10.01,-0.227,-0.296,-0.944
-0.953,0.211,0.14,-37.24,-0.91,-7.14,-0.228,-0.291,-0.942
-0.958,0.224,0.14,-25.76,-3.78,-4.83,-0.225,-0.296,-0.943
-0.969,0.23,0.144,-12.18,-9.1,-0.84,-0.224,-0.296,-0.944
-0.98,0.211,0.154,6.37,-11.55,1.82,-0.228,-0.296,-0.939
-0.986,0.187,0.16,15.26,-13.72,3.92,-0.23,-0.297,-0.941
-0.987,0.166,0.167,18.97,-15.4,5.25,-0.221,-0.294,-0.931
-0.985,0.152,0.173,18.55,-16.52,5.6,-0.225,-0.298,-0.932
-0.985,0.146,0.179,15.19,-17.43,5.39,-0.226,-0.294,-0.933
-0.987,0.147,0.184,11.55,-17.92,5.11,-0.229,-0.296,-0.937
-0.985,0.155,0.192,7.63,-18.48,5.11,-0.23,-0.294,-0.945
-0.985,0.159,0.196,7.28,-18.62,5.39,-0.23,-0.294,-0.937
-0.985,0.162,0.201,8.12,-18.27,6.58,-0.226,-0.292,-0.94
-0.982,0.162,0.204,10.29,-17.99,7.63,-0.229,-0.291,-0.939
-0.979,0.158,0.208,12.39,-17.36,9.03,-0.231,-0.29,-0.932
-0.977,0.151,0.208,13.44,-16.17,11.2,-0.23,-0.294,-0.932
-0.983,0.142,0.212,12.04,-14.91,12.18,-0.229,-0.289,-0.929
-0.985,0.14,0.215,9.38,-13.44,13.02,-0.227,-0.294,-0.927
-0.989,0.139,0.215,6.09,-12.25,13.58,-0.23,-0.287,-0.928
-0.999,0.142,0.21,2.1,-10.64,14.14,-0.23,-0.283,-0.925
-1.011,0.154,0.209,-2.24,-8.4,14.7,-0.228,-0.279,-0.921
-1.008,0.162,0.207,-4.41,-7.0,14.84,-0.231,-0.277,-0.917
-1.003,0.168,0.202,-5.81,-6.09,14.28,-0.231,-0.281,-0.928
-0.997,0.175,0.197,-6.44,-5.88,13.86,-0.232,-0.281,-0.918
-0.985,0.18,0.193,-6.58,-4.9,12.46,-0.232,-0.276,-0.917
-0.973,0.183,0.19,-6.23,-4.06,11.41,-0.233,-0.277,-0.916
-0.968,0.187,0.185,-4.83,-3.43,9.1,-0.231,-0.271,-0.918
-0.972,0.191,0.182,-3.29,-3.29,7.91,-0.233,-0.269,-0.918
-0.975,0.193,0.182,-1.4,-3.71,6.79,-0.233,-0.27,-0.914
-0.978,0.194,0.186,1.33,-4.34,6.23,-0.23,-0.272,-0.916
-0.981,0.191,0.189,4.06,-4.76,5.74,-0.233,-0.268,-0.919
-0.975,0.186,0.192,7.56,-4.97,5.32,-0.228,-0.268,-0.923
-0.975,0.18,0.193,8.89,-4.55,4.97,-0.231,-0.267,-0.918
-0.982,0.175,0.197,8.75,-3.43,4.2,-0.232,-0.268,-0.921
-0.984,0.17,0.198,7.56,-1.82,3.01,-0.235,-0.268,-0.915
-0.985,0.168,0.195,4.83,-0.28,1.47,-0.237,-0.272,-0.921
-0.99,0.169,0.19,1.89,1.12,-0.07,-0.238,-0.27,-0.913
-0.997,0.174,0.185,-0.84,2.66,-1.96,-0.233,-0.267,-0.914
-0.996,0.18,0.179,-3.08,4.62,-4.2,-0.237,-0.269,-0.914
-0.988,0.181,0.172,-3.5,4.97,-5.18,-0.232,-0.273,-0.92
-0.983,0.18,0.17,-3.85,5.18,-6.58,-0.231,-0.272,-0.921
-0.979,0.177,0.167,-4.34,4.9,-8.19,-0.233,-0.272,-0.917
-0.977,0.176,0.163,-4.41,4.62,-9.66,-0.233,-0.271,-0.922
-0.976,0.176,0.159,-4.62,4.83,-10.78,-0.229,-0.266,-0.923
-0.979,0.178,0.158,-3.92,4.41,-11.76,-0.23,-0.271,-0.924
-0.981,0.181,0.159,-1.26,3.43,-12.32,-0.228,-0.274,-0.929
-0.981,0.179,0.159,1.4,2.45,-12.18,-0.231,-0.27,-0.922
-0.982,0.175,0.16,4.27,1.61,-12.25,-0.231,-0.275,-0.925
-0.981,0.167,0.162,6.58,0.56,-11.48,-0.232,-0.277,-0.93
-0.976,0.159,0.163,7.7,0.07,-11.48,-0.229,-0.28,-0.926
-0.966,0.147,0.164,6.65,-0.77,-11.27,-0.228,-0.284,-0.927
-0.968,0.144,0.16,4.69,-0.63,-10.85,-0.228,-0.284,-0.931
-0.976,0.146,0.16,2.52,-0.56,-10.71,-0.229,-0.289,-0.928
-0.977,0.151,0.161,1.33,-0.77,-10.08,-0.232,-0.289,-0.929
-0.982,0.153,0.161,0.91,-1.54,-9.45,-0.23,-0.287,-0.926
-0.992,0.158,0.161,1.4,-3.08,-7.28,-0.229,-0.292,-0.928
-0.985,0.157,0.163,2.66,-3.99,-6.02,-0.23,-0.294,-0.928
-0.976,0.154,0.166,3.71,-5.46,-5.18,-0.229,-0.295,-0.929
-0.977,0.15,0.168,4.13,-6.3,-4.76,-0.231,-0.295,-0.933
-0.977,0.148,0.169,4.13,-6.72,-3.85,-0.232,-0.295,-0.925
-0.976,0.147,0.177,4.55,-6.72,-3.29,-0.224,-0.295,-0.932
-0.979,0.148,0.184,4.9,-6.86,-2.17,-0.227,-0.294,-0.934
-0.984,0.149,0.19,5.95,-7.77,-0.84,-0.227,-0.296,-0.933
-0.986,0.15,0.193,7.0,-8.33,0.56,-0.222,-0.29,-0.929
-0.99,0.147,0.199,8.05,-8.89,2.03,-0.225,-0.293,-0.924
-0.992,0.141,0.203,7.77,-8.47,3.71,-0.224,-0.291,-0.929
-0.992,0.136,0.206,6.16,-7.21,4.48,-0.226,-0.294,-0.931
-0.986,0.137,0.204,3.78,-5.81,5.04,-0.225,-0.29,-0.929
-0.985,0.142,0.202,1.75,-4.62,5.32,-0.231,-0.289,-0.928
-0.984,0.147,0.201,0.14,-3.64,5.88,-0.228,-0.288,-0.932
-0.981,0.151,0.2,-1.12,-2.66,6.44,-0.225,-0.291,-0.927
-0.977,0.156,0.193,-1.61,-2.31,7.0,-0.226,-0.292,-0.934
-0.978,0.16,0.189,-1.89,-2.38,7.35,-0.228,-0.288,-0.931
-0.976,0.164,0.186,-1.89,-2.31,7.63,-0.229,-0.286,-0.931
-0.976,0.166,0.185,-1.61,-2.17,7.98,-0.231,-0.28,-0.93
-0.978,0.167,0.184,-1.26,-2.31,8.33,-0.233,-0.288,-0.923
-0.98,0.168,0.184,-1.12,-2.31,8.47,-0.23,-0.28,-0.923
-0.981,0.169,0.183,-0.91,-2.59,8.89,-0.227,-0.28,-0.923
-0.983,0.172,0.181,-0.98,-2.52,8.82,-0.23,-0.28,-0.932
-0.982,0.176,0.179,-1.05,-2.45,8.61,-0.231,-0.279,-0.922
-0.981,0.179,0.178,-0.77,-2.24,8.12,-0.232,-0.282,-0.923
-0.981,0.181,0.179,-0.56,-2.24,7.0,-0.233,-0.277,-0.92
-0.981,0.181,0.177,0.28,-2.17,5.81,-0.227,-0.28,-0.924
-0.982,0.18,0.178,0.56,-2.31,4.41,-0.233,-0.278,-0.924
-0.982,0.178,0.179,0.56,-1.82,3.15,-0.233,-0.276,-0.93
-0.982,0.177,0.179,0.28,-1.61,1.61,-0.232,-0.275,-0.924
-0.984,0.176,0.181,0.07,-1.33,0.07,-0.232,-0.273,-0.93
-0.981,0.174,0.18,-0.28,-0.56,-1.75,-0.233,-0.271,-0.926
-0.978,0.171,0.177,-0.14,-0.35,-2.73,-0.233,-0.276,-0.931
-0.976,0.169,0.179,0.0,0.14,-3.5,-0.234,-0.277,-0.93
-0.973,0.165,0.179,0.35,0.21,-4.2,-0.231,-0.278,-0.927
-0.984,0.16,0.176,-0.21,-0.07,-4.62,-0.231,-0.274,-0.933
-1.002,0.156,0.174,-1.47,-0.07,-4.83,-0.231,-0.278,-0.928
-0.997,0.154,0.169,-2.94,0.77,-5.6,-0.231,-0.282,-0.93
-0.98,0.156,0.166,-4.41,0.91,-6.65,-0.23,-0.28,-0.935
-0.973,0.163,0.165,-5.25,-0.35,-7.35,-0.235,-0.283,-0.926
-0.966,0.162,0.165,-3.92,-1.4,-7.56,-0.23,-0.285,-0.929
-0.959,0.16,0.169,-1.47,-2.24,-7.07,-0.234,-0.284,-0.932
-0.957,0.156,0.175,1.05,-2.94,-6.02,-0.23,-0.287,-0.924
-0.963,0.15,0.178,3.57,-3.64,-4.97,-0.228,-0.287,-0.928
-0.973,0.145,0.183,5.67,-4.48,-3.64,-0.226,-0.287,-0.928
-0.979,0.142,0.188,5.95,-4.76,-2.66,-0.23,-0.294,-0.923
-0.985,0.137,0.191,5.39,-4.69,-1.75,-0.229,-0.29,-0.925
-0.986,0.134,0.195,3.85,-4.48,-1.19,-0.231,-0.29,-0.928
-0.988,0.136,0.194,1.75,-4.2,-0.56,-0.232,-0.286,-0.925
-0.991,0.141,0.195,-0.77,-3.43,0.14,-0.23,-0.291,-0.928
-0.993,0.148,0.196,-1.54,-2.8,0.21,-0.231,-0.292,-0.924
-0.988,0.15,0.194,-1.96,-2.66,-0.07,-0.228,-0.286,-0.925
-0.989,0.154,0.194,-1.82,-2.38,-0.21,-0.229,-0.286,-0.929
-0.99,0.157,0.193,-1.4,-2.03,-0.14,-0.229,-0.282,-0.926
-0.988,0.157,0.19,-0.07,-1.68,-17.92,-0.229,-0.287,-0.924
-0.984,0.154,0.191,1.82,-1.47,0.14,-0.225,-0.285,-0.935
-0.981,0.145,0.191,2.31,-1.61,0.7,-0.229,-0.283,-0.925
-0.98,0.14,0.19,1.68,-1.54,1.33,-0.225,-0.289,-0.929
-0.979,0.142,0.188,0.77,-1.75,2.17,-0.231,-0.288,-0.926
-0.98,0.147,0.189,0.14,-2.24,2.66,-0.235,-0.284,-0.925
-0.98,0.152,0.189,0.21,-2.31,3.78,-0.233,-0.283,-0.929
-0.976,0.156,0.187,1.05,-2.38,4.2,-0.224,-0.283,-0.928
-0.977,0.156,0.188,1.89,-2.59,4.69,-0.227,-0.287,-0.927
