ax,ay,az,gx,gy,gz,mx,my,mz
-0.912,0.407,0.071,-0.21,-2.87,0.7,-0.193,-0.247,-0.795
-0.912,0.411,0.07,0.21,-3.22,0.7,-0.194,-0.249,-0.795
-0.913,0.409,0.069,0.7,-3.57,0.98,-0.195,-0.248,-0.795
-0.913,0.406,0.07,0.63,-3.85,1.05,-0.196,-0.244,-0.798
-0.914,0.406,0.071,0.35,-3.92,1.12,-0.198,-0.247,-0.801
-0.919,0.409,0.073,-0.07,-4.2,0.98,-0.194,-0.248,-0.797
-0.919,0.409,0.073,-0.14,-4.41,1.05,-0.196,-0.249,-0.802
-0.918,0.409,0.074,-0.28,-4.41,1.05,-0.197,-0.251,-0.802
-0.914,0.409,0.075,-0.35,-4.69,1.12,-0.199,-0.251,-0.794
-0.912,0.405,0.078,-0.35,-4.9,0.98,-0.196,-0.247,-0.805
-0.917,0.406,0.082,-0.21,-5.18,1.19,-0.198,-0.251,-0.79
-0.916,0.405,0.084,0.07,-5.18,1.54,-0.198,-0.248,-0.791
-0.913,0.405,0.082,0.35,-5.18,1.82,-0.2,-0.251,-0.794
-0.915,0.406,0.083,0.28,-5.32,2.03,-0.195,-0.244,-0.796
-0.918,0.407,0.093,0.49,-5.46,2.1,-0.2,-0.246,-0.796
-0.91,0.4,0.09,0.42,-5.25,1.82,-0.196,-0.245,-0.792
-0.917,0.401,0.087,-0.98,-5.39,1.54,-0.195,-0.239,-0.798
-0.917,0.404,0.1,-1.47,-5.04,1.82,-0.193,-0.242,-0.796
-0.901,0.402,0.097,-1.26,-4.62,2.1,-0.197,-0.243,-0.8
-0.894,0.395,0.098,-1.05,-4.55,1.96,-0.199,-0.244,-0.794
-0.891,0.393,0.107,-1.82,-4.76,1.96,-0.194,-0.244,-0.797
-0.895,0.398,0.118,-2.73,-4.41,2.03,-0.194,-0.245,-0.797
-0.919,0.415,0.13,-3.22,-3.85,3.36,-0.195,-0.242,-0.788
-0.928,0.425,0.135,-3.08,-3.15,3.92,-0.196,-0.242,-0.787
-0.925,0.43,0.137,-3.15,-2.52,3.85,-0.198,-0.237,-0.79
-0.92,0.44,0.137,-3.85,-2.1,2.66,-0.195,-0.236,-0.788
-0.912,0.44,0.138,-4.41,-1.89,0.7,-0.203,-0.239,-0.785
-0.903,0.435,0.143,-3.85,-2.24,-0.91,-0.199,-0.234,-0.786
-0.897,0.429,0.146,-2.38,-2.45,-1.96,-0.197,-0.236,-0.791
-0.89,0.426,0.158,-0.84,-2.73,-1.96,-0.199,-0.232,-0.786
-0.849,0.412,0.158,0.77,-2.59,-1.26,-0.203,-0.233,-0.779
-0.817,0.399,0.151,3.43,-3.01,-0.91,-0.202,-0.231,-0.775
-0.801,0.395,0.144,5.74,-3.43,-0.84,-0.202,-0.232,-0.774
-0.829,0.402,0.132,8.68,-3.99,0.0,-0.203,-0.231,-0.779
-0.899,0.418,0.138,13.51,-5.11,3.36,-0.205,-0.228,-0.776
-0.951,0.422,0.137,17.78,-3.29,8.12,-0.202,-0.229,-0.774
-0.957,0.408,0.117,17.78,-0.84,12.11,-0.208,-0.223,-0.768
-0.938,0.417,0.076,7.98,2.73,12.53,-0.2,-0.224,-0.761
-0.904,0.439,0.06,1.12,2.94,9.45,-0.206,-0.217,-0.763
-0.915,0.464,0.057,-1.26,2.03,6.44,-0.205,-0.216,-0.76
-0.922,0.473,0.059,-0.49,1.4,5.18,-0.206,-0.212,-0.753
-0.913,0.467,0.054,1.61,1.4,5.67,-0.206,-0.209,-0.753
-0.916,0.453,0.049,2.03,2.03,6.86,-0.21,-0.202,-0.737
-0.919,0.432,0.049,-4.34,3.43,7.56,-0.215,-0.202,-0.736
-0.862,0.43,0.041,-12.39,4.76,6.72,-0.217,-0.198,-0.739
-0.835,0.457,0.054,-19.81,3.85,5.25,-0.223,-0.189,-0.72
-0.811,0.47,0.057,-22.19,2.8,3.57,-0.223,-0.19,-0.718
-0.788,0.469,0.057,-21.28,1.75,2.52,-0.223,-0.182,-0.701
-0.771,0.469,0.062,-18.83,0.7,2.73,-0.225,-0.181,-0.688
-0.763,0.463,0.07,-15.19,-0.91,4.27,-0.229,-0.179,-0.68
-0.752,0.447,0.071,-10.08,-1.61,6.3,-0.222,-0.176,-0.654
-0.749,0.439,0.072,-8.47,-2.45,8.19,-0.224,-0.172,-0.644
-0.754,0.445,0.065,-8.75,-3.01,9.38,-0.215,-0.178,-0.6
-0.776,0.459,0.07,-9.73,-3.92,10.92,-0.209,-0.18,-0.58
-0.781,0.469,0.076,-10.01,-4.06,12.25,-0.197,-0.184,-0.555
-0.778,0.465,0.068,-10.64,-3.85,12.88,-0.166,-0.206,-0.514
-0.779,0.467,0.079,-13.93,-3.36,12.67,-0.153,-0.221,-0.503
-0.812,0.472,0.074,-16.87,-2.94,11.9,-0.105,-0.271,-0.484
-0.812,0.48,0.07,-19.39,-2.87,11.2,-0.074,-0.298,-0.496
-0.847,0.491,0.073,-20.79,-2.52,10.99,-0.05,-0.322,-0.518
-0.865,0.495,0.073,-21.7,-1.61,11.13,-0.012,-0.36,-0.584
-0.864,0.496,0.071,-23.45,-0.28,11.27,-0.003,-0.369,-0.621
-0.855,0.495,0.067,-25.69,0.56,10.08,-0.009,-0.347,-0.7
-0.832,0.495,0.067,-27.51,1.26,8.33,-0.017,-0.331,-0.736
-0.796,0.496,0.073,-28.98,2.31,4.41,-0.037,-0.319,-0.759
-0.757,0.47,0.086,-28.7,3.15,1.54,-0.069,-0.281,-0.789
-0.736,0.435,0.105,-30.31,5.18,-0.84,-0.081,-0.272,-0.798
-0.709,0.389,0.108,-35.49,8.47,-1.75,-0.112,-0.257,-0.81
-0.655,0.362,0.109,-42.07,12.6,-0.84,-0.12,-0.245,-0.814
-0.608,0.368,0.132,-45.57,15.47,1.47,-0.14,-0.236,-0.832
-0.633,0.387,0.073,-42.49,16.8,2.38,-0.15,-0.227,-0.832
-0.874,0.365,0.11,-35.98,14.7,5.39,-0.154,-0.224,-0.839
-0.895,0.305,0.137,-30.1,18.41,11.27,-0.167,-0.208,-0.839
-0.823,0.253,0.106,-29.26,20.3,14.28,-0.176,-0.203,-0.841
-0.876,0.264,0.084,-30.03,15.47,17.15,-0.184,-0.185,-0.847
-1.0,0.274,0.087,-24.57,9.87,20.37,-0.188,-0.185,-0.846
-1.089,0.27,0.081,-16.8,7.35,23.1,-0.193,-0.18,-0.853
-1.146,0.253,0.083,-12.18,5.81,22.05,-0.201,-0.171,-0.847
-1.169,0.215,0.058,-7.77,4.69,18.2,-0.202,-0.168,-0.846
-1.153,0.143,0.033,-7.14,4.13,12.53,-0.207,-0.167,-0.852
-1.137,0.05,0.019,-13.58,2.52,11.34,-0.211,-0.165,-0.852
-1.16,0.049,0.026,-26.25,0.49,11.48,-0.211,-0.16,-0.849
-1.158,0.117,0.027,-37.03,-1.19,12.6,-0.214,-0.16,-0.855
-1.083,0.173,0.009,-36.12,-2.45,13.51,-0.213,-0.156,-0.851
-0.992,0.184,-0.011,-19.88,-8.89,12.18,-0.216,-0.148,-0.844
-0.952,0.107,-0.009,10.57,-14.21,9.59,-0.214,-0.147,-0.849
-1.041,0.051,0.001,24.08,-17.57,8.12,-0.221,-0.148,-0.842
-1.098,0.009,-0.002,23.87,-16.59,8.26,-0.219,-0.147,-0.841
-1.084,0.02,-0.015,15.68,-14.77,8.82,-0.222,-0.147,-0.84
-1.08,0.067,-0.025,8.75,-14.63,8.4,-0.224,-0.145,-0.839
-1.091,0.096,-0.036,10.15,-15.33,7.63,-0.221,-0.148,-0.834
-1.111,0.102,-0.041,15.82,-16.03,7.91,-0.223,-0.147,-0.834
-1.144,0.084,-0.023,17.57,-16.31,8.75,-0.228,-0.142,-0.831
-1.136,0.085,-0.016,14.14,-15.33,8.54,-0.221,-0.141,-0.83
-1.125,0.097,-0.013,7.7,-14.35,6.79,-0.226,-0.14,-0.825
-1.121,0.121,-0.017,4.27,-13.44,5.18,-0.231,-0.142,-0.821
-1.121,0.136,-0.02,3.64,-12.6,2.87,-0.226,-0.14,-0.819
-1.117,0.147,-0.011,5.11,-12.04,1.4,-0.223,-0.14,-0.819
-1.114,0.157,-0.007,6.16,-11.27,-2.17,-0.224,-0.144,-0.816
-1.099,0.157,0.0,6.93,-10.92,-3.92,-0.226,-0.138,-0.818
-1.085,0.136,0.007,6.65,-10.36,-4.55,-0.225,-0.137,-0.815
-1.082,0.133,0.004,3.01,-9.31,-4.62,-0.227,-0.142,-0.813
-1.078,0.142,0.006,-1.68,-7.98,-4.55,-0.226,-0.137,-0.821
-1.073,0.164,0.005,-4.62,-6.65,-3.78,-0.225,-0.144,-0.813
-1.071,0.188,0.002,-4.27,-5.81,-3.43,-0.226,-0.141,-0.814
-1.065,0.21,0.002,-1.26,-5.53,-3.22,-0.226,-0.141,-0.812
-1.061,0.205,0.003,2.17,-5.39,-2.94,-0.224,-0.141,-0.811
-1.064,0.191,0.002,4.48,-5.53,-2.24,-0.223,-0.14,-0.81
-1.071,0.188,0.001,3.29,-5.32,-0.98,-0.222,-0.142,-0.813
-1.078,0.203,0.004,1.61,-4.62,0.42,-0.223,-0.143,-0.813
-1.079,0.219,0.008,1.54,-4.34,3.01,-0.225,-0.143,-0.813
-1.076,0.225,0.003,2.03,-3.29,3.36,-0.22,-0.14,-0.816
-1.077,0.226,-0.006,1.75,-3.15,3.29,-0.224,-0.149,-0.818
-1.122,0.24,0.0,1.47,-2.8,3.5,-0.218,-0.149,-0.818
-1.094,0.243,0.0,1.05,-1.75,3.43,-0.228,-0.142,-0.813
-1.08,0.236,-0.001,0.49,-1.47,3.29,-0.227,-0.14,-0.814
-1.068,0.236,0.002,-0.21,-1.4,3.22,-0.228,-0.142,-0.809
-1.051,0.242,0.001,-0.77,-1.75,3.43,-0.223,-0.138,-0.81
-1.033,0.248,0.019,0.56,-2.52,3.78,-0.22,-0.141,-0.816
-1.02,0.242,0.02,3.15,-3.08,3.64,-0.227,-0.139,-0.816
-1.001,0.232,0.016,3.36,-3.36,3.57,-0.229,-0.139,-0.815
-0.997,0.243,0.02,4.41,-4.06,4.27,-0.226,-0.143,-0.82
-0.995,0.248,0.024,6.79,-4.27,5.46,-0.229,-0.14,-0.818
-0.989,0.239,0.024,10.22,-4.34,7.07,-0.228,-0.14,-0.815
-0.973,0.227,0.018,10.71,-4.13,7.7,-0.225,-0.14,-0.821
-0.959,0.228,0.017,9.87,-3.92,7.91,-0.222,-0.144,-0.816
-0.97,0.238,0.017,8.19,-3.5,6.79,-0.226,-0.142,-0.815
-0.984,0.238,0.005,8.61,-2.8,5.81,-0.223,-0.141,-0.818
-0.999,0.233,0.004,8.05,-2.1,4.55,-0.223,-0.142,-0.819
-1.009,0.225,0.003,6.58,-1.19,3.5,-0.224,-0.144,-0.814
-1.011,0.221,-0.001,3.5,0.07,2.31,-0.223,-0.14,-0.818
-1.011,0.223,-0.008,0.14,1.12,0.7,-0.222,-0.138,-0.817
-1.002,0.218,-0.015,-2.87,1.89,-1.89,-0.226,-0.139,-0.81
-0.988,0.213,-0.017,-4.34,1.4,-3.29,-0.224,-0.136,-0.817
-0.982,0.214,-0.016,-4.41,0.42,-3.85,-0.227,-0.137,-0.812
-0.972,0.217,-0.013,-3.01,-0.91,-3.64,-0.223,-0.14,-0.812
-0.969,0.216,-0.005,-0.49,-2.38,-3.01,-0.225,-0.135,-0.817
-0.97,0.2,0.0,1.96,-3.36,-2.1,-0.223,-0.137,-0.819
-0.962,0.193,0.002,2.31,-3.85,-0.77,-0.228,-0.139,-0.822
-0.958,0.199,0.003,1.33,-4.13,1.19,-0.227,-0.139,-0.821
-0.965,0.22,0.021,1.68,-4.55,2.03,-0.225,-0.141,-0.814
-0.973,0.229,0.022,1.89,-4.62,2.03,-0.226,-0.143,-0.817
-0.983,0.212,0.022,6.93,-4.06,-0.28,-0.226,-0.14,-0.814
-0.989,0.209,0.021,2.73,-3.5,-1.26,-0.229,-0.14,-0.817
-0.982,0.222,0.019,0.42,-2.87,-1.96,-0.228,-0.144,-0.818
-0.983,0.228,0.017,1.12,-2.73,-2.66,-0.226,-0.145,-0.814
-0.988,0.221,0.011,2.38,-2.94,-2.87,-0.226,-0.144,-0.819
-0.996,0.22,0.02,3.01,-3.15,-2.66,-0.222,-0.144,-0.816
-0.996,0.212,0.02,3.08,-2.8,-2.66,-0.225,-0.146,-0.811
-1.003,0.207,0.003,0.63,-2.1,-2.59,-0.228,-0.142,-0.819
-1.012,0.215,0.003,-1.61,-1.75,-3.01,-0.223,-0.144,-0.819
-1.009,0.224,0.004,-2.52,-1.54,-3.15,-0.224,-0.147,-0.814
-1.002,0.229,0.001,-2.03,-1.68,-3.01,-0.225,-0.146,-0.816
-0.992,0.227,0.001,-1.05,-2.45,-2.8,-0.221,-0.146,-0.815
-0.986,0.223,0.005,0.28,-2.87,-2.59,-0.225,-0.143,-0.812
-0.987,0.219,0.007,1.05,-3.22,-2.24,-0.228,-0.145,-0.817
-0.986,0.215,0.008,0.42,-2.94,-1.68,-0.221,-0.147,-0.815
-0.988,0.246,0.012,-1.12,-2.66,-1.75,-0.226,-0.147,-0.817
-0.992,0.225,0.011,-3.01,-2.52,-1.82,-0.22,-0.145,-0.815
-0.985,0.231,0.006,-3.85,-2.31,-1.61,-0.224,-0.142,-0.815
-0.986,0.243,0.002,-4.13,-2.59,-1.4,-0.223,-0.144,-0.811
-0.987,0.251,0.006,-3.08,-3.08,-0.77,-0.223,-0.14,-0.809
-0.977,0.252,0.003,-1.05,-3.36,0.0,-0.228,-0.143,-0.812
-0.971,0.247,0.001,1.05,-4.34,0.77,-0.225,-0.145,-0.812
-0.976,0.24,0.011,1.75,-5.04,0.98,-0.225,-0.148,-0.811
-0.969,0.242,0.015,1.68,-4.97,0.98,-0.227,-0.146,-0.815
-0.961,0.242,0.016,1.96,-4.83,0.84,-0.227,-0.146,-0.81
-0.963,0.239,0.016,2.1,-4.97,0.28,-0.222,-0.144,-0.811
-0.975,0.235,0.02,1.68,-4.76,-0.14,-0.224,-0.145,-0.813
-0.983,0.228,0.016,-0.07,-3.99,-0.77,-0.224,-0.145,-0.813
-0.989,0.23,0.016,-1.4,-3.57,-1.05,-0.222,-0.147,-0.812
-0.98,0.23,0.015,-2.31,-3.36,-0.63,-0.225,-0.146,-0.811
-0.966,0.233,0.009,-1.75,-3.57,-0.14,-0.229,-0.143,-0.814
-0.967,0.241,0.01,0.07,-4.55,0.77,-0.219,-0.145,-0.812
-0.975,0.242,0.013,3.01,-4.76,1.54,-0.225,-0.143,-0.809
-0.981,0.231,0.01,5.32,-4.69,1.75,-0.225,-0.143,-0.811
-0.984,0.219,0.007,2.45,-3.99,0.98,-0.229,-0.147,-0.808
-0.986,0.228,0.004,-0.77,-3.43,0.0,-0.223,-0.146,-0.814
-0.984,0.241,0.0,-2.59,-2.8,-0.42,-0.224,-0.145,-0.809
-0.985,0.245,-0.001,-2.17,-2.8,-0.91,-0.22,-0.146,-0.812
-0.994,0.245,-0.003,-0.84,-2.87,-0.91,-0.228,-0.146,-0.812
-1.01,0.239,-0.014,0.07,-2.94,-0.91,-0.224,-0.148,-0.812
-1.008,0.235,-0.014,-0.21,-2.87,-0.98,-0.224,-0.146,-0.808
-0.997,0.24,-0.007,-1.68,-3.22,-0.91,-0.223,-0.148,-0.809
-0.987,0.234,-0.006,-0.91,-3.99,-0.56,-0.225,-0.143,-0.808
-0.978,0.232,-0.002,-0.28,-3.92,-0.21,-0.224,-0.138,-0.808
-0.972,0.236,0.0,0.63,-4.06,-0.21,-0.23,-0.141,-0.811
-0.969,0.232,-0.001,1.75,-3.78,-0.42,-0.222,-0.143,-0.805
-0.97,0.218,0.0,2.52,-3.85,-1.4,-0.223,-0.144,-0.806
-0.985,0.218,-0.006,-3.29,-1.26,-1.75,-0.228,-0.146,-0.809
-0.99,0.222,-0.005,-2.94,-1.33,-1.33,-0.223,-0.147,-0.809
-0.991,0.223,-0.009,-1.82,-1.82,-0.28,-0.225,-0.142,-0.803
-0.986,0.229,-0.011,-0.49,-2.38,0.98,-0.231,-0.139,-0.807
-0.976,0.234,-0.011,0.7,-3.08,1.61,-0.228,-0.142,-0.803
-0.967,0.234,-0.011,2.52,-3.78,1.61,-0.223,-0.144,-0.807
-0.967,0.232,-0.009,2.31,-3.92,0.98,-0.225,-0.141,-0.806
-0.976,0.234,-0.011,2.03,-4.13,0.77,-0.223,-0.139,-0.808
-0.998,0.241,-0.011,1.82,-4.06,1.19,-0.224,-0.145,-0.801
-1.012,0.246,-0.013,1.47,-3.71,1.05,-0.224,-0.147,-0.803
-1.0,0.244,-0.021,1.19,-3.01,1.19,-0.225,-0.142,-0.808
-0.99,0.247,-0.022,-0.35,-3.57,-1.26,-0.221,-0.14,-0.802
-0.997,0.248,-0.016,-0.21,-4.34,-2.66,-0.223,-0.141,-0.801
-1.008,0.243,-0.015,0.28,-4.69,-3.22,-0.218,-0.14,-0.8
-1.028,0.24,-0.012,-0.35,-4.48,-3.29,-0.219,-0.151,-0.799
-1.035,0.243,-0.01,-1.4,-3.29,-3.01,-0.22,-0.147,-0.806
-1.014,0.248,-0.014,-2.8,-2.8,-3.22,-0.224,-0.148,-0.804
-0.993,0.249,-0.014,-3.43,-2.87,-4.27,-0.222,-0.146,-0.801
-0.986,0.247,-0.013,-2.03,-4.13,-4.55,-0.218,-0.15,-0.803
-1.01,0.246,-0.001,0.14,-4.48,-4.06,-0.222,-0.145,-0.803
-1.019,0.244,-0.002,2.59,-4.13,-2.73,-0.222,-0.147,-0.802
-1.029,0.235,-0.01,3.29,-3.92,-2.24,-0.225,-0.15,-0.805
-1.04,0.227,-0.006,2.38,-3.43,-2.45,-0.224,-0.145,-0.802
-1.037,0.227,-0.006,-0.49,-3.01,-3.71,-0.228,-0.151,-0.808
-1.045,0.237,-0.008,-1.96,-3.43,-4.48,-0.224,-0.154,-0.803
-1.072,0.243,-0.006,-1.12,-4.06,-4.69,-0.222,-0.152,-0.801
-1.091,0.238,-0.007,2.03,-4.41,-3.22,-0.223,-0.146,-0.806
-1.125,0.239,-0.021,6.02,-4.97,-2.17,-0.222,-0.148,-0.805
-1.144,0.248,-0.03,8.54,-5.32,-1.33,-0.223,-0.147,-0.801
-1.175,0.256,-0.033,10.36,-6.37,-1.96,-0.222,-0.152,-0.798
-1.201,0.26,-0.028,11.83,-7.35,-3.08,-0.224,-0.152,-0.802
-1.206,0.257,-0.023,12.39,-7.07,-4.41,-0.222,-0.153,-0.806
-1.178,0.245,-0.018,11.62,-5.74,-6.16,-0.217,-0.161,-0.803
-1.126,0.215,-0.014,9.1,-4.69,-8.26,-0.217,-0.158,-0.802
-1.108,0.203,-0.011,5.25,-3.36,-9.59,-0.218,-0.162,-0.805
-1.092,0.202,-0.011,1.82,-1.89,-9.87,-0.221,-0.161,-0.8
-1.087,0.221,-0.02,0.14,-1.19,-9.17,-0.22,-0.167,-0.8
-1.093,0.241,-0.022,1.75,-1.12,-8.54,-0.222,-0.165,-0.795
-1.093,0.246,-0.026,7.42,-1.19,-9.45,-0.221,-0.168,-0.808
-1.091,0.207,-0.034,8.96,-0.84,-12.04,-0.221,-0.169,-0.806
-1.09,0.177,-0.029,6.93,-0.21,-15.47,-0.215,-0.173,-0.811
-1.094,0.152,-0.024,2.38,1.12,-18.62,-0.216,-0.175,-0.813
-1.078,0.132,-0.031,-1.96,3.15,-21.0,-0.215,-0.177,-0.813
-1.057,0.116,-0.035,-5.25,4.27,-22.54,-0.215,-0.176,-0.817
-1.04,0.108,-0.036,-6.58,4.48,-22.89,-0.219,-0.181,-0.812
-1.024,0.101,-0.038,-5.81,4.2,-22.47,-0.216,-0.185,-0.817
-1.013,0.101,-0.051,-3.57,3.08,-21.07,-0.213,-0.186,-0.817
-1.026,0.108,-0.058,0.14,1.12,-19.53,-0.216,-0.19,-0.814
-1.058,0.138,-0.063,9.87,-2.73,-15.33,-0.217,-0.192,-0.812
-1.059,0.154,-0.056,19.6,-5.11,-12.81,-0.218,-0.195,-0.814
-1.025,0.144,-0.054,29.75,-6.79,-11.41,-0.209,-0.196,-0.817
-1.001,0.127,-0.057,35.63,-9.1,-11.69,-0.212,-0.202,-0.818
-1.021,0.104,-0.055,36.89,-10.5,-12.39,-0.212,-0.206,-0.816
-1.067,0.108,-0.06,32.97,-10.08,-12.95,-0.208,-0.209,-0.817
-1.108,0.127,-0.06,26.74,-7.7,-13.44,-0.204,-0.214,-0.817
-1.148,0.163,-0.065,17.99,-4.27,-14.63,-0.2,-0.209,-0.817
-1.149,0.19,-0.068,12.74,-3.01,-16.8,-0.199,-0.217,-0.823
-1.134,0.208,-0.071,8.96,-2.52,-19.6,-0.198,-0.218,-0.826
-1.119,0.229,-0.056,6.23,-2.73,-22.47,-0.196,-0.219,-0.824
-1.085,0.252,-0.043,5.74,-3.5,-24.43,-0.192,-0.229,-0.825
-1.024,0.28,-0.058,8.4,-4.2,-25.97,-0.189,-0.236,-0.825
-1.009,0.31,-0.071,11.83,-6.93,-26.46,-0.188,-0.237,-0.83
-0.989,0.323,-0.035,20.44,-10.85,-24.99,-0.182,-0.248,-0.832
-0.83,0.31,0.001,23.52,-12.74,-22.89,-0.176,-0.251,-0.83
-0.708,0.311,0.066,23.87,-15.54,-22.33,-0.169,-0.262,-0.827
-0.583,0.326,0.108,20.58,-16.66,-23.17,-0.164,-0.265,-0.831
-0.484,0.384,0.118,20.02,-17.57,-23.52,-0.147,-0.279,-0.826
-0.451,0.475,0.111,29.61,-19.81,-22.05,-0.144,-0.284,-0.818
-0.522,0.516,0.126,45.99,-22.26,-18.9,-0.14,-0.289,-0.827
-0.618,0.481,0.126,56.629,-18.62,-8.54,-0.125,-0.309,-0.823
-0.67,0.434,0.1,41.72,-14.14,-0.84,-0.12,-0.316,-0.822
-0.737,0.483,0.083,14.63,-11.13,5.88,-0.103,-0.329,-0.811
-0.844,0.554,0.059,-10.01,-8.54,9.52,-0.1,-0.334,-0.808
-0.907,0.628,0.055,-24.57,-6.44,13.02,-0.088,-0.341,-0.798
-0.858,0.66,0.046,-27.72,-3.36,12.95,-0.07,-0.35,-0.785
-0.787,0.653,0.041,-22.12,-3.78,8.54,-0.057,-0.356,-0.771
-0.8,0.6,0.052,-12.6,-6.86,2.31,-0.038,-0.376,-0.745
-0.847,0.509,0.067,-7.42,-8.19,-2.17,-0.028,-0.386,-0.726
-0.82,0.499,0.07,-11.13,-6.86,-1.89,-0.03,-0.393,-0.699
-0.789,0.528,0.083,-11.62,-6.65,-0.7,-0.021,-0.402,-0.651
-0.76,0.54,0.098,-4.97,-6.65,1.33,-0.03,-0.397,-0.624
-0.726,0.5,0.104,3.08,-5.95,3.36,-0.038,-0.389,-0.582
-0.71,0.456,0.101,6.09,-3.57,4.55,-0.05,-0.382,-0.57
-0.719,0.445,0.094,-0.56,-1.47,4.69,-0.059,-0.367,-0.554
-0.744,0.47,0.09,-5.53,1.33,5.46,-0.084,-0.34,-0.534
-0.766,0.499,0.082,-7.14,3.08,8.33,-0.099,-0.32,-0.532
-0.79,0.521,0.072,-5.53,4.34,11.48,-0.122,-0.291,-0.529
-0.826,0.529,0.058,-3.43,4.83,13.93,-0.133,-0.273,-0.536
-0.865,0.529,0.042,-2.52,5.53,15.75,-0.141,-0.224,-0.546
-0.894,0.532,0.037,-4.06,5.67,15.54,-0.161,-0.232,-0.557
-0.915,0.55,0.035,-4.69,5.04,13.3,-0.168,-0.224,-0.558
-0.923,0.554,0.041,-3.85,4.41,10.15,-0.178,-0.206,-0.574
-0.919,0.556,0.037,-0.98,3.43,6.09,-0.183,-0.195,-0.589
-0.912,0.541,0.029,2.24,2.38,1.89,-0.199,-0.194,-0.608
-0.902,0.524,0.016,6.86,1.33,-2.45,-0.196,-0.194,-0.609
-0.894,0.507,0.023,11.83,0.35,-5.74,-0.206,-0.192,-0.617
-0.887,0.491,0.035,18.41,-0.84,-7.98,-0.21,-0.195,-0.634
-0.861,0.452,0.031,20.65,-0.21,-9.38,-0.21,-0.198,-0.633
-0.839,0.433,0.041,20.86,0.28,-9.38,-0.214,-0.202,-0.644
-0.832,0.421,0.041,20.02,1.33,-8.82,-0.22,-0.203,-0.653
-0.839,0.414,0.029,18.27,2.45,-7.77,-0.221,-0.203,-0.654
-0.84,0.413,0.018,16.24,3.92,-5.95,-0.218,-0.21,-0.662
-0.838,0.412,0.008,14.56,5.53,-4.69,-0.218,-0.217,-0.66
-0.848,0.415,0.006,13.09,6.65,-2.03,-0.223,-0.214,-0.673
-0.855,0.423,0.004,12.32,7.77,-0.42,-0.225,-0.212,-0.681
-0.869,0.43,-0.003,11.62,8.47,0.35,-0.224,-0.217,-0.686
-0.879,0.431,-0.012,9.73,8.89,0.91,-0.224,-0.216,-0.688
-0.886,0.43,-0.018,6.09,9.38,-0.07,-0.228,-0.219,-0.694
-0.895,0.438,-0.021,1.68,9.1,-1.89,-0.222,-0.22,-0.7
-0.912,0.448,-0.018,-1.68,8.47,-3.78,-0.219,-0.223,-0.704
-0.943,0.453,-0.014,-4.13,7.63,-4.83,-0.215,-0.225,-0.703
-0.97,0.455,-0.01,-7.14,7.42,-6.37,-0.218,-0.231,-0.716
-0.94,0.444,0.0,-9.8,7.07,-7.7,-0.216,-0.231,-0.722
-0.889,0.436,0.01,-12.18,6.09,-9.87,-0.214,-0.227,-0.731
-0.854,0.429,0.028,-13.86,3.85,-12.81,-0.216,-0.228,-0.736
-0.857,0.418,0.041,-14.77,1.47,-15.82,-0.214,-0.235,-0.74
-0.904,0.4,0.046,-16.73,0.56,-16.94,-0.21,-0.24,-0.745
-0.942,0.39,0.053,-23.52,1.96,-14.91,-0.21,-0.241,-0.747
-0.914,0.41,0.071,-26.67,3.08,-11.83,-0.21,-0.241,-0.758
-0.894,0.437,0.07,-25.34,2.03,-8.12,-0.209,-0.244,-0.755
-0.892,0.437,0.069,-20.51,-0.35,-6.02,-0.208,-0.242,-0.759
-0.884,0.447,0.083,-14.35,-2.17,-3.36,-0.207,-0.244,-0.764
-0.861,0.434,0.102,-8.12,-3.71,-1.47,-0.205,-0.244,-0.765
-0.856,0.422,0.113,-4.2,-5.53,0.35,-0.205,-0.245,-0.768
-0.863,0.417,0.115,-1.47,-7.56,2.17,-0.202,-0.248,-0.776
-0.866,0.422,0.118,0.91,-8.61,3.99,-0.198,-0.252,-0.777
-0.87,0.435,0.124,5.81,-10.5,6.44,-0.193,-0.247,-0.776
-0.888,0.446,0.133,10.5,-11.48,7.91,-0.197,-0.25,-0.772
-0.895,0.438,0.125,14.28,-11.06,8.26,-0.195,-0.247,-0.779
-0.904,0.438,0.125,15.96,-11.06,8.75,-0.194,-0.251,-0.779
-0.915,0.438,0.121,17.08,-10.85,8.96,-0.199,-0.253,-0.781
-0.92,0.434,0.117,17.22,-10.08,9.1,-0.196,-0.253,-0.783
-0.929,0.428,0.113,15.82,-9.45,9.03,-0.2,-0.249,-0.791
-0.93,0.437,0.114,13.09,-8.05,9.1,-0.193,-0.248,-0.784
-0.922,0.44,0.109,12.46,-6.93,8.61,-0.194,-0.249,-0.784
-0.922,0.434,0.101,11.34,-6.51,7.98,-0.195,-0.246,-0.786
-0.919,0.433,0.1,9.45,-5.39,7.35,-0.194,-0.247,-0.787
-0.906,0.438,0.097,7.63,-4.48,6.58,-0.191,-0.246,-0.786
-0.898,0.446,0.096,6.93,-4.13,5.74,-0.195,-0.247,-0.789
-0.891,0.447,0.096,8.05,-3.43,5.11,-0.196,-0.246,-0.785
-0.893,0.441,0.099,9.17,-3.22,4.27,-0.196,-0.247,-0.785
-0.909,0.43,0.1,8.33,-2.1,3.01,-0.195,-0.246,-0.791
-0.92,0.428,0.099,5.39,-0.7,2.03,-0.194,-0.248,-0.794
-0.927,0.431,0.098,1.96,1.12,0.98,-0.193,-0.255,-0.789
-0.93,0.436,0.093,-1.26,2.8,-0.42,-0.194,-0.247,-0.792
-0.926,0.438,0.087,-3.92,4.34,-2.03,-0.198,-0.248,-0.794
-0.918,0.437,0.078,-6.09,5.25,-4.27,-0.194,-0.248,-0.79
