ax,ay,az,gx,gy,gz,mx,my,mz
-0.661,0.754,0.035,-3.71,-3.08,-0.63,-0.011,-0.491,-0.881
-0.66,0.769,0.029,-4.13,-2.94,-1.12,-0.014,-0.497,-0.877
-0.659,0.768,0.035,-3.36,-2.94,-1.75,-0.008,-0.49,-0.876
-0.659,0.764,0.037,-3.01,-2.8,-2.8,-0.009,-0.492,-0.876
-0.66,0.77,0.033,-3.99,-3.01,-4.13,-0.011,-0.492,-0.878
-0.657,0.779,0.03,-3.5,-3.57,-4.9,-0.011,-0.492,-0.882
-0.654,0.778,0.031,-1.96,-3.43,-6.16,-0.009,-0.495,-0.88
-0.642,0.745,0.046,-0.56,-3.22,-7.0,-0.013,-0.491,-0.879
-0.643,0.754,0.048,-3.01,-3.22,-6.93,-0.007,-0.498,-0.876
-0.656,0.805,0.034,-4.9,-3.5,-6.79,-0.007,-0.495,-0.884
-0.678,0.832,0.03,-3.78,-3.15,-8.68,-0.015,-0.495,-0.884
-0.688,0.829,0.031,-1.4,-0.49,-13.72,-0.009,-0.497,-0.882
-0.671,0.839,0.004,3.64,5.88,-20.86,-0.003,-0.497,-0.879
-0.664,0.872,0.02,7.56,8.33,-25.76,-0.006,-0.498,-0.877
-0.685,0.917,0.072,8.19,10.15,-32.48,-0.002,-0.495,-0.885
-0.682,1.006,0.067,1.47,16.52,-46.48,0.002,-0.505,-0.883
-0.665,1.024,0.033,-5.04,21.35,-68.88,0.01,-0.508,-0.887
-0.548,1.043,0.084,-26.46,35.42,-111.3,0.016,-0.516,-0.885
-0.404,0.874,0.118,-65.94,36.75,-132.02,0.032,-0.526,-0.883
-0.312,0.894,0.195,-112.28,38.01,-139.23,0.043,-0.522,-0.878
-0.228,1.049,0.279,-145.95,37.94,-130.34,0.065,-0.526,-0.857
-0.153,1.232,0.374,-148.821,36.12,-112.28,0.074,-0.525,-0.843
-0.035,1.417,0.456,-127.54,39.9,-100.66,0.079,-0.523,-0.826
0.12,1.347,0.498,-86.1,41.44,-117.39,0.103,-0.522,-0.814
0.176,1.328,0.528,-46.76,35.98,-122.36,0.109,-0.532,-0.813
0.046,1.391,0.669,8.12,39.41,-122.85,0.132,-0.543,-0.815
-0.005,1.278,0.672,25.9,48.02,-128.94,0.148,-0.544,-0.817
0.009,1.267,0.569,25.76,57.26,-131.11,0.155,-0.549,-0.816
0.073,1.307,0.423,25.27,60.2,-129.85,0.176,-0.552,-0.825
0.152,1.345,0.28,25.83,56.49,-125.93,0.187,-0.555,-0.826
0.177,1.476,0.214,26.18,47.74,-121.38,0.211,-0.56,-0.819
0.1,1.609,0.224,47.53,37.31,-114.17,0.227,-0.562,-0.824
-0.031,1.524,0.116,68.389,37.87,-107.87,0.249,-0.564,-0.834
-0.037,1.413,0.007,71.75,39.97,-101.36,0.261,-0.571,-0.837
-0.027,1.374,-0.092,64.82,37.66,-91.91,0.267,-0.565,-0.843
-0.017,1.387,-0.118,56.28,29.75,-80.99,0.284,-0.571,-0.849
-0.043,1.347,-0.081,48.929,19.18,-66.57,0.288,-0.571,-0.852
-0.102,1.253,-0.1,42.35,18.9,-55.79,0.307,-0.57,-0.865
-0.127,1.177,-0.112,37.66,18.83,-42.0,0.313,-0.571,-0.869
-0.137,1.114,-0.106,35.0,19.32,-26.88,0.322,-0.573,-0.868
-0.176,1.098,-0.073,38.99,19.39,-10.43,0.321,-0.574,-0.872
-0.221,1.111,-0.019,64.05,24.92,14.21,0.323,-0.573,-0.874
-0.299,1.098,0.009,93.31,31.78,31.64,0.319,-0.574,-0.886
-0.343,1.048,0.004,122.01,38.71,45.57,0.315,-0.575,-0.896
-0.359,1.018,0.004,144.76,46.34,53.55,0.312,-0.582,-0.92
-0.344,0.933,-0.051,146.09,51.169,52.639,0.304,-0.586,-0.933
-0.36,1.011,-0.049,156.73,48.02,74.55,0.292,-0.587,-0.957
-0.391,1.008,-0.017,155.47,48.37,64.19,0.286,-0.591,-0.974
-0.372,0.908,-0.004,150.15,47.6,54.32,0.283,-0.588,-0.983
-0.3,0.83,0.028,137.83,44.31,44.38,0.278,-0.591,-1.018
-0.224,0.807,0.074,120.19,38.64,34.09,0.278,-0.587,-1.025
-0.151,0.785,0.152,102.06,30.59,22.4,0.282,-0.581,-1.041
-0.09,0.71,0.252,89.669,23.31,9.38,0.276,-0.583,-1.045
-0.054,0.549,0.326,77.84,19.04,7.0,0.276,-0.581,-1.059
-0.051,0.528,0.354,62.23,17.36,9.03,0.28,-0.582,-1.061
-0.036,0.528,0.381,51.52,15.82,9.8,0.279,-0.576,-1.067
-0.025,0.527,0.394,45.99,14.14,13.93,0.279,-0.579,-1.074
-0.045,0.552,0.397,49.77,14.07,28.63,0.271,-0.576,-1.075
-0.05,0.558,0.35,55.649,14.56,29.4,0.272,-0.576,-1.086
-0.049,0.536,0.375,51.379,10.92,24.92,0.271,-0.573,-1.091
-0.069,0.528,0.423,36.4,7.49,19.53,0.269,-0.57,-1.095
-0.056,0.488,0.439,24.15,5.74,11.62,0.269,-0.574,-1.099
-0.061,0.446,0.476,6.79,0.42,2.24,0.265,-0.57,-1.102
-0.079,0.495,0.557,-16.45,-3.15,-5.53,0.271,-0.568,-1.096
-0.025,0.61,0.609,-20.09,-3.92,-8.54,0.27,-0.572,-1.097
-0.006,0.595,0.583,-5.6,-5.04,-9.59,0.27,-0.571,-1.096
-0.018,0.609,0.609,1.26,-7.21,-9.66,0.269,-0.566,-1.096
-0.035,0.644,0.617,4.27,-6.86,-10.15,0.271,-0.572,-1.096
-0.033,0.617,0.572,6.93,-5.25,-12.53,0.278,-0.571,-1.099
-0.022,0.627,0.593,3.22,-6.3,-12.25,0.277,-0.571,-1.101
0.008,0.761,0.619,-0.42,-4.69,-8.54,0.277,-0.57,-1.098
0.053,0.769,0.546,11.48,-2.94,-6.51,0.277,-0.574,-1.095
0.027,0.656,0.525,16.59,-4.34,-9.59,0.277,-0.57,-1.1
-0.022,0.608,0.581,9.73,-6.3,-7.84,0.279,-0.565,-1.099
-0.023,0.64,0.6,-1.33,-3.57,-6.16,0.278,-0.57,-1.098
0.002,0.685,0.594,-3.5,-1.82,-4.69,0.281,-0.57,-1.099
0.024,0.701,0.599,-2.31,-2.52,-4.69,0.28,-0.569,-1.1
0.015,0.638,0.594,0.07,-3.43,-4.83,0.282,-0.569,-1.097
0.008,0.621,0.628,-3.57,-4.41,-4.34,0.279,-0.57,-1.098
0.016,0.705,0.663,-9.31,-4.9,-2.52,0.282,-0.57,-1.095
0.033,0.758,0.635,-4.2,-3.22,-0.98,0.282,-0.571,-1.098
0.031,0.674,0.635,6.3,-4.55,-1.47,0.289,-0.567,-1.099
0.026,0.737,0.663,0.42,-4.69,0.35,0.285,-0.569,-1.099
0.031,0.755,0.644,1.61,-3.71,0.91,0.285,-0.568,-1.096
0.031,0.711,0.62,5.11,-2.94,1.4,0.287,-0.568,-1.103
0.027,0.725,0.627,2.45,-3.43,2.24,0.277,-0.57,-1.096
0.047,0.759,0.64,-0.28,-3.92,1.4,0.281,-0.57,-1.1
0.041,0.707,0.646,2.73,-4.76,-0.14,0.281,-0.568,-1.096
0.021,0.713,0.638,3.22,-4.69,2.03,0.283,-0.565,-1.098
0.047,0.761,0.642,0.63,-4.83,2.52,0.283,-0.567,-1.102
0.049,0.752,0.663,3.01,-5.67,2.31,0.283,-0.566,-1.102
0.031,0.735,0.652,3.85,-4.83,2.38,0.279,-0.566,-1.101
0.02,0.724,0.647,0.35,-4.83,1.26,0.282,-0.568,-1.103
0.03,0.746,0.687,-4.06,-4.69,1.19,0.279,-0.567,-1.102
0.036,0.753,0.66,-1.89,-3.5,1.96,0.283,-0.564,-1.1
0.037,0.782,0.637,-1.68,-3.43,2.03,0.283,-0.564,-1.1
0.031,0.772,0.647,-0.7,-4.41,0.21,0.287,-0.568,-1.101
0.026,0.745,0.66,-0.28,-4.27,-1.54,0.284,-0.565,-1.103
0.033,0.727,0.664,-1.33,-4.83,-2.52,0.279,-0.568,-1.098
0.019,0.724,0.684,-0.63,-4.55,0.07,0.282,-0.569,-1.104
0.022,0.764,0.677,-0.91,-3.36,1.61,0.277,-0.566,-1.1
0.035,0.76,0.667,1.54,-3.01,0.7,0.279,-0.566,-1.105
0.029,0.732,0.667,1.33,-3.36,-0.14,0.274,-0.569,-1.102
0.023,0.743,0.652,-0.98,-3.22,0.35,0.281,-0.563,-1.104
0.026,0.765,0.632,-2.45,-3.15,-0.84,0.278,-0.567,-1.101
0.019,0.746,0.647,1.19,-3.78,-0.21,0.278,-0.567,-1.105
0.019,0.72,0.681,3.01,-3.36,0.56,0.275,-0.569,-1.104
0.013,0.717,0.671,0.98,-2.66,0.98,0.276,-0.566,-1.103
0.023,0.75,0.659,-3.22,-2.59,0.91,0.279,-0.566,-1.107
0.035,0.746,0.65,-1.61,-2.66,0.49,0.28,-0.561,-1.101
0.038,0.73,0.653,2.1,-3.01,1.89,0.279,-0.563,-1.107
0.035,0.731,0.662,2.17,-3.08,0.98,0.28,-0.563,-1.102
0.025,0.719,0.674,0.91,-3.43,0.28,0.278,-0.56,-1.113
0.025,0.73,0.651,-1.54,-2.87,-0.07,0.278,-0.561,-1.107
0.028,0.74,0.656,-2.31,-3.29,-0.28,0.279,-0.565,-1.104
0.019,0.749,0.668,0.0,-2.59,1.89,0.277,-0.566,-1.103
0.031,0.756,0.652,2.1,-1.89,2.24,0.278,-0.565,-1.108
0.032,0.745,0.646,1.26,-1.82,0.98,0.28,-0.564,-1.102
0.03,0.727,0.668,-1.33,-2.87,-0.7,0.283,-0.566,-1.1
0.025,0.736,0.675,-2.87,-2.59,-0.35,0.276,-0.564,-1.107
0.034,0.771,0.652,-2.03,-1.89,1.19,0.277,-0.563,-1.1
0.035,0.768,0.638,3.92,-2.52,0.42,0.28,-0.565,-1.095
0.033,0.734,0.663,2.8,-3.22,-0.56,0.279,-0.563,-1.099
0.032,0.735,0.67,-0.98,-3.22,-2.03,0.278,-0.569,-1.1
0.01,0.732,0.658,-0.91,-2.8,-1.33,0.277,-0.567,-1.101
0.028,0.735,0.644,0.49,-1.89,0.42,0.275,-0.568,-1.099
0.056,0.749,0.648,0.35,-1.96,0.7,0.278,-0.565,-1.103
0.028,0.706,0.659,-0.21,-3.15,-1.26,0.279,-0.569,-1.094
0.024,0.703,0.653,-4.13,-2.45,-0.56,0.273,-0.566,-1.103
0.045,0.731,0.635,-7.35,-1.68,0.42,0.274,-0.571,-1.098
0.066,0.757,0.639,-6.86,-1.68,0.84,0.281,-0.562,-1.107
0.044,0.761,0.646,-3.71,-2.59,0.84,0.281,-0.566,-1.105
0.017,0.736,0.634,1.19,-2.31,2.1,0.28,-0.567,-1.105
0.034,0.769,0.641,-0.28,-2.52,3.01,0.277,-0.566,-1.101
0.047,0.78,0.645,2.17,-2.87,2.52,0.277,-0.569,-1.107
0.031,0.733,0.643,6.37,-3.43,1.4,0.276,-0.567,-1.105
0.016,0.721,0.652,3.36,-3.57,1.61,0.274,-0.572,-1.106
0.022,0.753,0.653,-1.26,-3.57,1.89,0.273,-0.571,-1.103
0.036,0.76,0.657,0.42,-3.78,1.54,0.271,-0.567,-1.1
0.027,0.75,0.647,2.38,-3.08,2.38,0.274,-0.564,-1.1
0.038,0.779,0.656,-0.28,-3.22,1.75,0.271,-0.569,-1.104
0.04,0.77,0.66,-0.21,-3.5,-0.63,0.273,-0.566,-1.099
0.022,0.735,0.671,0.91,-3.85,-1.33,0.272,-0.567,-1.098
0.02,0.745,0.662,-0.56,-2.8,-0.07,0.271,-0.569,-1.102
0.036,0.762,0.653,0.07,-2.52,-0.35,0.276,-0.569,-1.092
0.029,0.745,0.651,0.56,-2.94,-1.54,0.272,-0.567,-1.095
0.031,0.734,0.655,-0.14,-2.87,-2.03,0.277,-0.561,-1.099
0.026,0.742,0.661,-1.05,-3.08,-1.61,0.272,-0.564,-1.097
0.022,0.75,0.657,0.84,-2.59,-0.49,0.271,-0.564,-1.099
0.026,0.735,0.633,3.01,-2.45,-0.77,0.272,-0.566,-1.096
0.025,0.721,0.652,0.21,-3.01,-1.12,0.274,-0.567,-1.102
0.025,0.736,0.662,-1.75,-2.94,-0.49,0.274,-0.569,-1.099
0.023,0.742,0.641,-0.84,-2.59,-0.14,0.273,-0.563,-1.097
0.021,0.749,0.652,0.35,-3.01,0.14,0.275,-0.564,-1.098
0.026,0.747,0.665,1.82,-3.71,-1.05,0.269,-0.566,-1.104
0.013,0.707,0.665,1.4,-3.57,-0.91,0.269,-0.566,-1.098
0.019,0.738,0.674,-0.42,-3.22,0.7,0.275,-0.563,-1.102
0.033,0.756,0.663,0.35,-2.66,1.47,0.271,-0.566,-1.098
0.023,0.728,0.648,2.45,-2.52,0.7,0.274,-0.57,-1.099
0.019,0.729,0.656,-0.84,-2.87,0.42,0.274,-0.571,-1.103
0.027,0.746,0.693,-2.87,-3.08,0.21,0.273,-0.568,-1.103
0.023,0.764,0.666,0.56,-1.68,2.52,0.275,-0.566,-1.102
0.023,0.76,0.639,2.73,-1.47,1.61,0.276,-0.566,-1.101
0.016,0.743,0.645,1.05,-2.31,0.28,0.271,-0.568,-1.1
0.012,0.725,0.667,-1.47,-2.87,-1.19,0.276,-0.569,-1.106
0.019,0.73,0.667,-1.54,-2.52,0.56,0.275,-0.566,-1.111
0.035,0.753,0.662,0.14,-1.89,2.31,0.273,-0.562,-1.105
0.031,0.75,0.66,2.24,-2.24,1.54,0.274,-0.565,-1.099
0.009,0.734,0.654,0.91,-2.17,0.35,0.272,-0.565,-1.106
0.012,0.738,0.641,-1.19,-1.96,0.21,0.274,-0.563,-1.108
0.024,0.738,0.642,-0.84,-2.38,0.84,0.271,-0.564,-1.105
0.038,0.744,0.661,1.26,-1.89,2.45,0.266,-0.567,-1.106
0.028,0.761,0.643,1.12,-1.96,1.96,0.274,-0.565,-1.107
0.02,0.746,0.625,0.35,-2.24,-0.28,0.277,-0.568,-1.104
0.023,0.734,0.64,-1.19,-2.8,-1.26,0.275,-0.567,-1.11
0.022,0.729,0.669,-0.84,-2.94,-0.56,0.273,-0.563,-1.11
0.02,0.738,0.648,0.35,-2.17,1.19,0.272,-0.57,-1.107
0.027,0.739,0.627,0.49,-2.31,0.14,0.272,-0.567,-1.111
0.026,0.745,0.639,-2.17,-3.22,-0.84,0.271,-0.567,-1.106
0.015,0.753,0.668,-2.52,-3.57,-1.33,0.268,-0.572,-1.111
0.023,0.73,0.658,1.96,-2.66,0.21,0.273,-0.568,-1.112
0.023,0.747,0.643,2.03,-2.03,1.75,0.276,-0.573,-1.106
0.019,0.763,0.638,0.07,-2.59,-1.12,0.269,-0.569,-1.108
0.022,0.702,0.645,0.84,-2.73,-2.31,0.268,-0.564,-1.108
0.023,0.713,0.644,-0.91,-2.87,-0.98,0.273,-0.566,-1.107
0.035,0.747,0.645,-0.7,-3.01,0.35,0.273,-0.564,-1.11
0.02,0.726,0.641,3.43,-3.5,0.7,0.274,-0.566,-1.108
0.007,0.695,0.629,3.92,-2.94,0.91,0.274,-0.567,-1.105
0.009,0.713,0.635,-4.34,-3.22,0.98,0.272,-0.566,-1.108
0.015,0.754,0.635,-4.48,-3.08,0.35,0.272,-0.567,-1.105
0.011,0.744,0.639,-1.89,-3.57,-0.63,0.273,-0.569,-1.112
0.014,0.722,0.646,-0.7,-3.85,-1.82,0.271,-0.569,-1.111
0.003,0.711,0.666,-0.28,-4.62,-1.61,0.27,-0.568,-1.111
-0.002,0.734,0.634,0.98,-3.36,0.77,0.274,-0.57,-1.115
0.0,0.696,0.61,2.94,-4.13,-0.07,0.273,-0.564,-1.108
-0.033,0.665,0.629,-0.49,-4.9,-2.38,0.278,-0.568,-1.105
-0.045,0.657,0.669,-7.7,-5.39,-4.27,0.272,-0.569,-1.103
-0.042,0.717,0.699,-13.72,-4.83,-4.06,0.271,-0.567,-1.107
-0.047,0.722,0.693,-11.41,-4.34,-7.14,0.274,-0.565,-1.11
-0.056,0.725,0.69,-12.74,-6.16,-13.86,0.273,-0.566,-1.104
-0.077,0.772,0.662,-15.26,-13.79,-28.0,0.274,-0.564,-1.099
-0.12,0.76,0.547,-8.61,-22.4,-44.59,0.279,-0.564,-1.096
-0.191,0.679,0.471,-3.15,-37.59,-68.88,0.283,-0.567,-1.099
-0.278,0.61,0.462,-4.48,-53.97,-89.53,0.29,-0.564,-1.096
-0.314,0.676,0.502,-15.33,-63.91,-98.98,0.3,-0.563,-1.098
-0.283,0.803,0.489,-19.25,-67.55,-105.49,0.306,-0.559,-1.102
-0.297,0.919,0.322,-0.14,-72.1,-118.3,0.327,-0.555,-1.096
-0.376,0.878,0.201,12.74,-80.43,-131.95,0.332,-0.547,-1.102
-0.421,0.717,0.2,17.99,-88.41,-142.1,0.345,-0.509,-1.118
-0.318,0.641,0.341,14.63,-88.9,-137.83,0.362,-0.529,-1.118
-0.136,0.676,0.394,15.33,-84.14,-125.65,0.367,-0.528,-1.117
-0.111,0.722,0.406,26.6,-86.45,-115.15,0.378,-0.519,-1.133
-0.234,0.699,0.376,35.91,-83.3,-114.94,0.384,-0.514,-1.138
-0.205,0.444,0.355,25.55,-66.78,-117.11,0.396,-0.5,-1.153
0.092,0.32,0.367,9.31,-49.07,-102.62,0.399,-0.496,-1.152
0.366,0.369,0.26,0.7,-43.54,-79.17,0.402,-0.491,-1.157
0.368,0.536,0.224,-3.01,-55.51,-59.57,0.406,-0.486,-1.159
0.149,0.588,0.246,-3.71,-67.2,-53.62,0.407,-0.482,-1.157
0.013,0.378,0.348,-15.61,-63.63,-43.26,0.399,-0.481,-1.16
0.179,0.111,0.356,-54.32,-49.63,-23.31,0.403,-0.481,-1.172
0.375,0.21,0.276,-111.72,-41.93,-4.69,0.403,-0.493,-1.157
0.399,0.546,0.22,-163.59,-48.51,12.25,0.399,-0.498,-1.148
0.261,0.765,0.296,-171.22,-65.24,27.58,0.39,-0.512,-1.134
0.117,0.795,0.393,-146.16,-68.46,44.31,0.377,-0.523,-1.12
0.062,0.741,0.443,-119.07,-62.79,65.8,0.37,-0.531,-1.105
0.078,0.857,0.487,-121.24,-60.62,76.37,0.349,-0.535,-1.085
0.064,1.06,0.548,-125.79,-65.87,83.649,0.344,-0.547,-1.077
-0.006,1.196,0.61,-119.56,-72.45,85.75,0.319,-0.555,-1.063
-0.06,1.164,0.624,-106.26,-74.69,82.179,0.309,-0.563,-1.059
-0.13,1.206,0.554,-106.47,-71.19,78.679,0.301,-0.567,-1.037
-0.158,1.253,0.474,-114.66,-66.64,72.73,0.278,-0.57,-1.028
-0.172,1.279,0.42,-111.72,-64.82,71.679,0.271,-0.57,-1.021
-0.235,1.323,0.503,-99.26,-62.51,70.07,0.252,-0.576,-1.005
-0.267,1.276,0.572,-77.14,-53.34,64.19,0.244,-0.577,-0.994
-0.251,1.207,0.604,-43.89,-39.06,61.669,0.227,-0.577,-0.986
-0.218,1.104,0.535,-28.0,-29.82,59.5,0.223,-0.58,-0.986
-0.192,1.052,0.461,-21.0,-23.59,58.45,0.208,-0.58,-0.978
-0.202,1.05,0.405,-24.71,-21.28,57.61,0.203,-0.579,-0.972
-0.213,1.034,0.381,-34.58,-20.58,55.51,0.197,-0.578,-0.971
-0.271,1.04,0.406,-52.15,-18.9,52.71,0.181,-0.572,-0.965
-0.32,1.134,0.392,-57.61,-14.63,52.149,0.172,-0.573,-0.966
-0.353,1.165,0.391,-50.05,-12.32,50.05,0.156,-0.565,-0.951
-0.371,1.143,0.393,-35.14,-10.01,53.48,0.152,-0.564,-0.946
-0.462,1.281,0.431,-24.15,-5.46,60.76,0.136,-0.56,-0.946
-0.515,1.317,0.373,-20.79,2.31,63.28,0.133,-0.561,-0.945
-0.573,1.243,0.316,-23.52,4.62,76.51,0.122,-0.559,-0.942
-0.401,1.106,0.367,-26.81,-3.57,85.19,0.105,-0.555,-0.935
-0.491,1.27,0.589,7.49,-45.92,140.0,0.095,-0.547,-0.936
-0.646,1.679,0.829,58.87,-20.86,157.78,0.068,-0.538,-0.941
-0.718,1.418,0.75,133.56,4.2,100.73,0.054,-0.533,-0.951
-0.766,1.039,0.669,138.67,14.28,61.53,0.051,-0.529,-0.966
-0.638,0.674,0.57,88.129,20.79,28.28,0.042,-0.533,-0.982
-0.513,0.434,0.397,26.74,22.54,9.31,0.049,-0.528,-0.988
-0.532,0.529,0.409,-32.27,24.57,-4.76,0.043,-0.532,-0.982
-0.536,0.653,0.374,-76.58,31.92,-11.83,0.045,-0.528,-0.98
-0.479,0.692,0.284,-97.93,36.12,-10.43,0.046,-0.537,-0.958
-0.426,0.703,0.183,-103.11,37.31,0.28,0.047,-0.533,-0.956
-0.388,0.711,0.032,-98.0,35.42,18.41,0.046,-0.533,-0.951
-0.416,0.732,-0.064,-94.64,32.06,30.45,0.041,-0.531,-0.93
-0.444,0.766,-0.125,-89.25,27.93,42.28,0.041,-0.527,-0.929
-0.468,0.822,-0.142,-75.53,21.07,54.53,0.028,-0.522,-0.918
-0.508,0.853,-0.121,-48.65,11.55,68.53,0.023,-0.517,-0.918
-0.579,0.866,-0.059,1.12,-1.89,86.379,0.011,-0.508,-0.91
-0.686,0.88,0.065,30.59,-6.3,89.81,0.004,-0.506,-0.916
-0.765,0.907,0.158,50.26,-5.11,87.85,-0.003,-0.504,-0.93
-0.794,0.897,0.218,61.74,0.28,78.96,-0.022,-0.499,-0.931
-0.787,0.855,0.233,60.2,4.34,61.04,-0.026,-0.496,-0.931
-0.794,0.828,0.239,48.37,4.83,39.2,-0.031,-0.496,-0.938
-0.805,0.823,0.235,35.42,4.34,14.49,-0.031,-0.493,-0.942
-0.789,0.796,0.219,29.05,5.25,-1.89,-0.031,-0.487,-0.947
-0.76,0.742,0.205,23.31,6.02,-14.91,-0.032,-0.488,-0.944
-0.723,0.697,0.184,15.54,7.42,-26.11,-0.032,-0.491,-0.951
-0.677,0.648,0.168,10.08,6.23,-31.01,-0.02,-0.497,-0.948
-0.639,0.646,0.14,-1.05,5.81,-32.83,-0.02,-0.496,-0.953
-0.621,0.685,0.145,-0.98,-0.84,-26.39,-0.014,-0.504,-0.949
-0.606,0.702,0.163,9.38,-2.73,-15.82,-0.014,-0.504,-0.955
-0.599,0.681,0.185,20.44,-5.04,-6.37,-0.015,-0.507,-0.956
-0.614,0.663,0.222,24.92,-7.49,1.61,-0.018,-0.505,-0.954
-0.633,0.647,0.231,23.8,-8.12,8.26,-0.013,-0.507,-0.959
-0.656,0.645,0.244,9.1,-8.26,11.2,-0.017,-0.503,-0.96
-0.679,0.674,0.243,1.82,-7.49,11.83,-0.014,-0.502,-0.963
-0.69,0.678,0.235,-4.83,-7.14,11.48,-0.017,-0.503,-0.958
-0.694,0.695,0.225,-11.34,-6.3,9.87,-0.02,-0.501,-0.957
-0.688,0.699,0.207,-15.33,-5.25,7.56,-0.023,-0.504,-0.959
-0.683,0.708,0.197,-16.73,-5.39,5.67,-0.022,-0.499,-0.961
-0.68,0.715,0.181,-14.91,-5.46,3.99,-0.023,-0.497,-0.954
-0.68,0.725,0.171,-11.76,-5.67,3.64,-0.022,-0.5,-0.955
-0.681,0.725,0.175,-8.61,-5.53,3.92,-0.025,-0.499,-0.95
-0.681,0.72,0.181,-6.58,-5.95,3.78,-0.025,-0.496,-0.946
-0.683,0.709,0.187,-5.95,-5.81,3.15,-0.023,-0.501,-0.952
-0.683,0.696,0.187,-7.28,-5.46,2.66,-0.021,-0.497,-0.953
-0.68,0.685,0.184,-11.48,-5.04,1.96,-0.022,-0.493,-0.946
-0.681,0.687,0.174,-15.26,-5.32,1.82,-0.025,-0.496,-0.951
-0.681,0.694,0.168,-18.48,-5.6,1.82,-0.026,-0.496,-0.944
-0.685,0.702,0.162,-20.44,-6.23,2.17,-0.025,-0.498,-0.938
-0.684,0.71,0.155,-21.56,-6.23,3.01,-0.025,-0.498,-0.936
-0.682,0.711,0.136,-21.63,-6.72,2.38,-0.023,-0.497,-0.936
-0.696,0.718,0.132,-22.19,-7.98,3.99,-0.027,-0.497,-0.932
-0.695,0.719,0.119,-21.21,-7.63,3.92,-0.029,-0.494,-0.924
-0.698,0.719,0.113,-20.44,-8.26,4.06,-0.025,-0.493,-0.924
-0.7,0.723,0.108,-19.53,-8.05,4.13,-0.029,-0.495,-0.918
-0.703,0.72,0.104,-19.04,-8.26,3.92,-0.031,-0.49,-0.921
-0.705,0.718,0.095,-18.97,-8.05,3.92,-0.032,-0.494,-0.917
-0.707,0.722,0.088,-18.97,-7.7,3.43,-0.03,-0.496,-0.908
-0.708,0.737,0.085,-18.13,-7.35,3.22,-0.03,-0.492,-0.911
-0.707,0.738,0.082,-16.31,-6.72,2.24,-0.031,-0.492,-0.913
-0.703,0.725,0.081,-13.86,-6.3,1.26,-0.031,-0.488,-0.908
-0.703,0.715,0.073,-12.18,-5.88,0.7,-0.029,-0.49,-0.903
-0.707,0.716,0.071,-11.97,-5.53,0.49,-0.029,-0.484,-0.903
-0.706,0.719,0.068,-11.48,-5.18,0.35,-0.031,-0.491,-0.905
-0.707,0.717,0.064,-11.13,-5.18,0.42,-0.029,-0.486,-0.906
-0.708,0.715,0.062,-10.5,-5.25,0.84,-0.024,-0.488,-0.905
-0.709,0.715,0.06,-10.08,-5.11,1.26,-0.021,-0.483,-0.903
-0.711,0.709,0.051,-9.03,-4.55,1.05,-0.027,-0.486,-0.906
-0.715,0.708,0.049,-8.47,-5.04,1.54,-0.029,-0.491,-0.9
-0.716,0.713,0.047,-8.54,-4.62,1.47,-0.032,-0.488,-0.906
-0.717,0.718,0.047,-8.05,-4.69,1.4,-0.027,-0.49,-0.897
-0.715,0.715,0.046,-7.0,-4.34,1.05,-0.027,-0.488,-0.898
-0.714,0.715,0.045,-6.37,-3.85,0.84,-0.031,-0.487,-0.902
-0.714,0.715,0.045,-5.18,-3.78,0.49,-0.025,-0.479,-0.899
-0.714,0.708,0.041,-4.41,-3.5,0.42,-0.027,-0.484,-0.893
-0.715,0.711,0.04,-4.2,-3.43,0.7,-0.028,-0.487,-0.89
-0.715,0.708,0.039,-4.06,-3.43,0.49,-0.028,-0.489,-0.894
-0.717,0.711,0.039,-3.92,-3.57,0.63,-0.032,-0.48,-0.891
-0.717,0.713,0.038,-3.99,-3.43,0.63,-0.034,-0.482,-0.892
-0.713,0.71,0.035,-3.43,-3.29,0.49,-0.035,-0.483,-0.892
-0.715,0.707,0.035,-3.29,-3.22,0.77,-0.027,-0.483,-0.887
-0.716,0.71,0.034,-3.15,-3.22,0.63,-0.031,-0.48,-0.882
-0.713,0.708,0.031,-2.73,-3.01,0.56,-0.034,-0.482,-0.881
-0.714,0.708,0.032,-1.96,-3.01,0.7,-0.032,-0.485,-0.893
-0.715,0.706,0.035,-2.17,-3.08,0.63,-0.031,-0.481,-0.882
-0.714,0.707,0.033,-2.73,-2.87,0.84,-0.03,-0.479,-0.885
-0.713,0.715,0.03,-2.38,-2.73,0.7,-0.03,-0.481,-0.887
-0.714,0.719,0.027,-1.4,-2.66,0.77,-0.031,-0.485,-0.887
-0.715,0.715,0.031,-0.28,-2.45,0.56,-0.034,-0.485,-0.885
-0.714,0.71,0.035,0.35,-2.38,0.49,-0.035,-0.484,-0.886
-0.714,0.705,0.033,0.49,-2.1,0.28,-0.032,-0.483,-0.891
