ax,ay,az,gx,gy,gz,mx,my,mz
-0.003,0.496,0.839,-1.26,2.17,1.12,0.208,-0.439,-1.223
-0.004,0.498,0.871,-0.07,1.82,1.54,0.204,-0.442,-1.227
0.0,0.504,0.851,-0.14,1.33,1.54,0.205,-0.442,-1.224
0.0,0.51,0.851,0.28,0.84,1.61,0.206,-0.445,-1.226
-0.004,0.513,0.852,0.98,0.07,1.61,0.206,-0.443,-1.224
-0.005,0.508,0.844,1.54,0.42,1.19,0.205,-0.438,-1.223
-0.009,0.505,0.851,1.89,-0.21,0.98,0.209,-0.434,-1.219
-0.004,0.503,0.859,0.98,0.21,0.77,0.202,-0.434,-1.22
-0.006,0.502,0.866,0.0,0.07,0.63,0.205,-0.438,-1.222
-0.011,0.507,0.859,-1.54,-0.07,0.42,0.206,-0.437,-1.22
-0.01,0.508,0.854,-1.4,0.42,0.07,0.203,-0.438,-1.225
-0.006,0.505,0.853,0.14,0.0,0.14,0.206,-0.441,-1.225
-0.008,0.5,0.853,0.98,0.0,-0.42,0.205,-0.442,-1.221
-0.007,0.496,0.855,0.77,-0.7,-0.28,0.202,-0.441,-1.22
-0.006,0.501,0.856,0.49,-0.49,0.28,0.201,-0.441,-1.221
-0.001,0.499,0.857,0.28,-0.63,0.56,0.205,-0.441,-1.228
-0.003,0.5,0.86,0.49,-0.35,0.98,0.203,-0.446,-1.221
-0.003,0.498,0.856,0.35,0.21,1.26,0.207,-0.445,-1.221
-0.004,0.502,0.859,0.77,-0.21,1.33,0.202,-0.444,-1.222
-0.006,0.503,0.859,0.98,-0.35,1.33,0.206,-0.446,-1.22
-0.012,0.503,0.86,1.26,-0.14,1.26,0.205,-0.444,-1.222
-0.014,0.503,0.857,0.77,0.14,1.12,0.2,-0.445,-1.223
-0.008,0.507,0.856,0.35,0.49,0.98,0.203,-0.445,-1.222
-0.004,0.506,0.854,0.28,0.0,1.12,0.203,-0.443,-1.221
-0.003,0.503,0.853,0.28,0.0,1.05,0.205,-0.447,-1.221
-0.003,0.501,0.853,0.21,-0.14,0.91,0.203,-0.446,-1.224
-0.001,0.502,0.858,0.14,-0.49,0.63,0.203,-0.447,-1.225
-0.005,0.502,0.858,0.35,-0.28,0.77,0.201,-0.453,-1.223
-0.005,0.493,0.863,1.05,-0.21,1.19,0.202,-0.444,-1.226
-0.007,0.485,0.867,0.98,0.0,1.47,0.204,-0.447,-1.219
-0.007,0.484,0.879,0.0,0.84,2.1,0.205,-0.446,-1.223
-0.003,0.474,0.88,-0.56,1.89,3.08,0.206,-0.451,-1.222
0.006,0.437,0.904,-0.49,2.66,4.2,0.205,-0.446,-1.226
0.048,0.361,0.926,-1.19,4.62,6.37,0.205,-0.448,-1.225
0.098,0.33,1.008,-7.42,7.56,10.64,0.205,-0.452,-1.225
0.166,0.238,1.083,-48.3,9.8,14.7,0.203,-0.449,-1.218
0.3,0.137,1.065,-100.45,10.92,14.28,0.202,-0.455,-1.213
0.32,0.16,1.054,-162.33,11.06,14.07,0.21,-0.476,-1.188
0.296,0.366,1.035,-227.36,17.64,12.39,0.207,-0.49,-1.184
0.235,0.733,1.016,-279.51,30.59,-0.7,0.216,-0.518,-1.134
0.305,1.279,1.114,-301.84,75.32,-12.53,0.217,-0.528,-1.11
0.415,2.066,0.763,-199.85,65.94,-26.67,0.224,-0.54,-1.071
0.388,1.762,0.71,-52.15,43.68,-51.38,0.236,-0.542,-1.063
0.396,1.311,0.672,45.64,27.16,-63.91,0.244,-0.54,-1.069
0.379,0.973,0.718,68.25,19.18,-73.78,0.263,-0.54,-1.086
0.335,0.8,0.68,20.02,18.48,-85.12,0.274,-0.541,-1.084
0.32,0.854,0.61,-89.39,23.87,-97.09,0.301,-0.538,-1.065
0.382,1.139,0.519,-110.25,25.2,-102.13,0.311,-0.54,-1.052
0.42,1.118,0.403,-84.28,15.96,-104.72,0.329,-0.539,-1.043
0.372,0.99,0.406,-48.79,0.07,-91.42,0.336,-0.537,-1.034
0.305,0.878,0.402,-37.1,-7.14,-82.39,0.346,-0.536,-1.037
0.275,0.797,0.418,-41.3,-8.19,-76.09,0.365,-0.531,-1.029
0.277,0.999,0.491,-40.11,-7.35,-63.84,0.374,-0.528,-1.031
0.233,1.026,0.421,-39.69,-7.91,-66.78,0.383,-0.527,-1.023
0.175,0.954,0.341,-38.85,-9.87,-59.85,0.389,-0.525,-1.021
0.106,0.974,0.536,-36.82,-7.63,-51.87,0.4,-0.523,-1.016
0.082,1.02,0.599,-24.22,4.83,-51.52,0.406,-0.519,-1.012
0.215,1.08,0.458,7.63,15.75,-49.0,0.413,-0.518,-1.013
0.213,1.043,0.31,61.74,10.43,-48.09,0.421,-0.511,-1.017
0.164,0.829,0.389,74.76,5.74,-39.41,0.43,-0.509,-1.023
0.23,0.649,0.408,68.46,6.44,-32.9,0.431,-0.508,-1.029
0.293,0.589,0.377,33.67,5.6,-29.82,0.437,-0.498,-1.03
0.249,0.793,0.413,3.5,7.07,-28.07,0.441,-0.499,-1.029
0.288,0.901,0.458,12.67,7.21,-26.88,0.443,-0.494,-1.036
0.294,0.853,0.474,31.92,7.28,-28.42,0.452,-0.497,-1.035
0.262,0.835,0.497,33.67,7.98,-24.64,0.448,-0.492,-1.035
0.29,0.784,0.402,18.69,11.69,-28.07,0.455,-0.489,-1.037
0.3,0.969,0.269,3.08,11.06,-30.52,0.455,-0.484,-1.036
0.315,1.298,0.191,25.06,9.24,-39.97,0.462,-0.48,-1.043
0.399,0.816,0.262,91.139,2.03,-40.32,0.465,-0.479,-1.046
0.391,0.515,0.337,93.379,-1.26,-40.53,0.471,-0.473,-1.055
0.479,0.184,0.449,39.9,0.42,-38.92,0.479,-0.467,-1.059
0.473,-0.041,0.493,12.95,2.66,-7.0,0.483,-0.464,-1.056
0.373,0.565,0.417,-13.51,14.0,-2.45,0.484,-0.462,-1.048
0.238,0.266,0.824,-17.64,13.58,-14.56,0.484,-0.466,-1.044
0.228,0.54,0.78,-96.18,49.139,-7.14,0.481,-0.464,-1.036
0.485,0.442,0.467,-45.85,61.74,5.53,0.486,-0.469,-1.022
0.384,0.387,0.254,-35.91,64.96,13.44,0.481,-0.472,-1.014
0.413,0.457,0.241,-7.0,60.409,34.65,0.479,-0.476,-1.011
0.379,0.442,0.351,24.71,51.659,55.58,0.481,-0.479,-1.004
0.379,0.401,0.398,39.62,46.69,69.58,0.478,-0.483,-1.005
0.431,0.331,0.417,44.45,44.24,83.44,0.468,-0.492,-1.005
0.401,0.349,0.184,20.37,32.83,96.11,0.458,-0.493,-1.005
0.29,0.621,-0.029,-7.56,26.32,81.76,0.455,-0.5,-0.999
0.264,0.957,0.098,9.17,22.12,74.48,0.444,-0.509,-0.993
0.212,0.842,0.34,16.03,19.53,46.62,0.441,-0.51,-0.997
0.295,0.746,0.43,-10.22,35.98,24.15,0.437,-0.512,-0.995
0.38,0.732,0.432,-22.47,41.51,11.48,0.438,-0.512,-0.993
0.393,0.593,0.501,-4.83,36.33,14.21,0.435,-0.518,-0.983
0.341,0.479,0.67,-4.97,23.24,17.78,0.432,-0.522,-0.981
0.35,0.566,0.582,-25.97,22.4,4.9,0.43,-0.52,-0.973
0.463,0.687,0.537,-31.36,14.49,-2.24,0.436,-0.52,-0.97
0.576,0.765,0.494,-19.32,12.11,-5.88,0.435,-0.523,-0.969
0.665,0.842,0.381,-4.06,9.03,-1.96,0.434,-0.519,-0.969
0.708,0.826,0.311,8.75,8.4,-1.96,0.439,-0.524,-0.973
0.696,0.74,0.207,11.27,11.69,-3.92,0.439,-0.516,-0.966
0.678,0.686,0.312,7.91,8.12,-1.75,0.438,-0.516,-0.975
0.655,0.683,0.292,3.5,10.5,-1.26,0.437,-0.52,-0.971
0.592,0.685,0.424,14.14,5.11,-1.54,0.435,-0.519,-0.97
0.559,0.652,0.46,26.18,3.01,-2.73,0.442,-0.522,-0.971
0.527,0.552,0.413,33.04,1.61,-3.99,0.439,-0.519,-0.976
0.464,0.526,0.336,23.03,0.35,-2.38,0.441,-0.518,-0.978
0.454,0.563,0.296,8.68,0.21,2.45,0.443,-0.516,-0.982
0.496,0.588,0.231,1.26,1.19,5.95,0.44,-0.514,-0.982
0.44,0.694,0.288,-5.88,-2.17,11.48,0.438,-0.518,-0.98
0.405,0.738,0.346,-10.5,-1.82,7.84,0.439,-0.52,-0.975
0.353,0.795,0.406,-7.14,-3.5,9.73,0.435,-0.519,-0.979
0.356,0.797,0.403,8.4,-2.45,9.73,0.436,-0.524,-0.98
0.367,0.649,0.374,13.72,-6.65,11.69,0.436,-0.523,-0.984
0.376,0.753,0.365,7.49,-6.65,17.29,0.431,-0.524,-0.981
0.391,0.875,0.35,10.29,-8.19,21.56,0.429,-0.522,-0.985
0.374,0.867,0.453,14.63,-10.78,23.24,0.426,-0.529,-0.984
0.425,0.909,0.481,2.31,-6.23,22.12,0.421,-0.527,-0.989
0.441,0.989,0.539,-6.79,-4.62,18.48,0.423,-0.529,-0.985
0.422,1.034,0.606,-4.69,0.42,10.5,0.417,-0.533,-0.988
0.422,0.931,0.401,5.11,0.21,8.89,0.415,-0.532,-0.986
0.411,0.976,0.383,5.53,-1.68,14.56,0.413,-0.529,-0.99
0.453,0.979,0.447,3.22,-1.96,13.72,0.417,-0.529,-0.991
0.391,0.896,0.452,2.45,-2.17,9.52,0.415,-0.534,-0.989
0.398,0.921,0.404,-3.92,0.14,9.38,0.414,-0.534,-0.99
0.402,0.913,0.429,-2.1,-0.7,10.71,0.411,-0.533,-0.99
0.434,0.908,0.417,-6.58,2.8,6.3,0.411,-0.534,-0.987
0.408,0.904,0.421,-2.1,-1.61,6.51,0.408,-0.53,-0.985
0.41,0.834,0.463,2.59,-1.89,6.44,0.405,-0.532,-0.983
0.396,0.849,0.303,-1.19,-1.4,8.75,0.412,-0.534,-0.987
0.369,0.906,0.363,-2.1,-3.08,11.13,0.41,-0.536,-0.984
0.393,0.844,0.401,-0.49,-0.7,6.23,0.406,-0.535,-0.987
0.408,0.729,0.376,1.54,-0.56,4.76,0.405,-0.534,-0.986
0.411,0.723,0.405,1.75,-3.99,14.77,0.403,-0.541,-0.985
0.351,0.835,0.414,2.1,-5.95,19.74,0.406,-0.546,-0.991
0.346,0.843,0.406,-4.83,-4.48,16.87,0.405,-0.543,-0.987
0.391,0.9,0.37,-11.97,-4.2,15.68,0.401,-0.542,-0.987
0.382,0.896,0.476,-6.79,-6.3,15.05,0.397,-0.544,-0.99
0.436,0.852,0.412,-3.5,-3.92,15.19,0.4,-0.539,-0.984
0.417,0.894,0.452,-4.55,-5.39,17.5,0.397,-0.54,-0.99
0.4,0.916,0.42,-6.51,-5.32,16.17,0.395,-0.544,-0.992
0.362,0.907,0.392,-0.28,-6.86,17.15,0.399,-0.544,-0.992
0.374,0.812,0.414,8.26,-8.47,16.59,0.393,-0.546,-0.991
0.38,0.803,0.403,3.71,-8.75,16.66,0.389,-0.546,-0.991
0.36,0.807,0.384,-1.33,-8.12,16.52,0.385,-0.548,-0.983
0.337,0.776,0.383,-6.79,-7.56,15.61,0.383,-0.547,-0.982
0.32,0.816,0.38,-10.64,-9.17,17.71,0.383,-0.549,-0.985
0.282,0.893,0.401,-7.14,-9.03,16.73,0.384,-0.548,-0.983
0.265,0.852,0.363,-5.67,-7.35,11.9,0.38,-0.546,-0.993
0.302,0.787,0.364,-2.1,-7.0,10.29,0.379,-0.552,-0.99
0.273,0.746,0.356,0.35,-9.24,12.04,0.38,-0.553,-0.987
0.192,0.78,0.324,-1.4,-11.06,14.21,0.377,-0.555,-0.988
0.134,0.863,0.378,-5.6,-7.77,13.58,0.376,-0.557,-0.989
0.172,0.798,0.392,-7.21,-4.69,6.23,0.372,-0.556,-0.989
0.196,0.78,0.387,-7.42,-4.2,3.99,0.371,-0.553,-0.982
0.179,0.777,0.415,-1.96,-5.11,4.41,0.366,-0.555,-0.987
0.178,0.778,0.395,4.55,-5.04,7.28,0.367,-0.555,-0.987
0.155,0.799,0.386,7.63,-5.11,8.82,0.366,-0.554,-0.988
0.157,0.798,0.382,5.88,-3.57,7.77,0.367,-0.55,-0.985
0.176,0.763,0.385,3.5,-1.54,4.06,0.368,-0.553,-0.987
0.2,0.772,0.382,1.33,-0.84,4.55,0.369,-0.552,-0.99
0.189,0.827,0.402,-1.75,-0.21,4.62,0.364,-0.554,-0.987
0.222,0.867,0.401,-1.82,1.33,2.1,0.366,-0.555,-0.989
0.225,0.853,0.344,3.57,0.63,0.0,0.363,-0.554,-0.982
0.19,0.768,0.331,8.54,0.07,-0.77,0.365,-0.557,-0.986
0.208,0.742,0.341,-0.98,0.98,0.07,0.361,-0.555,-0.986
0.259,0.808,0.354,-3.85,0.07,1.54,0.363,-0.553,-0.987
0.235,0.862,0.38,-3.71,-0.21,3.01,0.364,-0.55,-0.988
0.245,0.853,0.365,-1.89,0.98,0.14,0.366,-0.556,-0.988
0.22,0.828,0.378,1.4,-0.42,-1.05,0.368,-0.551,-0.988
0.22,0.776,0.397,3.57,-0.91,-1.47,0.366,-0.552,-0.99
0.228,0.802,0.39,0.77,-0.49,1.12,0.368,-0.555,-0.99
0.228,0.811,0.386,2.52,-1.33,3.64,0.369,-0.554,-0.987
0.257,0.795,0.395,4.48,-0.98,5.74,0.368,-0.558,-0.989
0.252,0.832,0.399,2.59,-1.47,6.65,0.361,-0.552,-0.991
0.264,0.838,0.377,4.34,-1.26,6.51,0.36,-0.555,-0.983
0.229,0.873,0.385,5.25,-3.15,8.68,0.36,-0.563,-0.99
0.224,0.902,0.407,3.99,-2.59,7.42,0.356,-0.557,-0.991
0.247,0.898,0.402,1.26,-2.17,2.94,0.359,-0.556,-0.989
0.25,0.888,0.392,0.35,-1.61,1.12,0.357,-0.555,-0.985
0.239,0.859,0.384,-1.61,-1.82,-1.26,0.358,-0.559,-0.985
0.247,0.875,0.362,-3.08,-2.31,0.91,0.364,-0.558,-0.993
0.245,0.877,0.413,-0.35,-3.85,0.49,0.36,-0.562,-0.991
0.242,0.889,0.376,-1.33,-3.57,-0.35,0.361,-0.559,-0.989
0.216,0.871,0.354,-0.98,-4.55,-1.82,0.358,-0.559,-0.99
0.195,0.838,0.384,-2.1,-4.41,-1.68,0.36,-0.559,-0.984
0.223,0.863,0.427,-6.79,-2.87,0.42,0.361,-0.559,-0.991
0.246,0.93,0.455,-7.56,-2.59,1.05,0.36,-0.553,-0.995
0.208,0.86,0.449,6.23,-3.22,-1.12,0.362,-0.553,-0.993
0.213,0.8,0.411,9.38,-1.54,0.21,0.357,-0.556,-0.988
0.214,0.807,0.385,8.47,-1.4,3.01,0.357,-0.556,-0.993
0.208,0.801,0.384,6.16,-2.03,4.48,0.357,-0.555,-0.993
0.232,0.824,0.416,1.05,-1.68,5.18,0.365,-0.553,-0.989
0.23,0.841,0.432,-2.17,-1.19,3.71,0.355,-0.559,-0.985
0.277,0.881,0.399,-5.11,-0.49,3.85,0.358,-0.553,-0.988
0.242,0.914,0.392,-0.28,-1.12,3.57,0.358,-0.559,-0.991
0.223,0.894,0.376,1.61,-0.77,2.59,0.36,-0.561,-0.989
0.233,0.887,0.384,-1.96,0.63,1.54,0.359,-0.559,-0.986
0.271,0.864,0.432,-3.57,0.21,-0.91,0.359,-0.562,-0.989
0.251,0.878,0.391,-2.8,-1.05,-0.49,0.353,-0.559,-0.982
0.226,0.92,0.361,-0.77,-0.56,2.03,0.358,-0.564,-0.985
0.207,0.892,0.356,0.84,0.07,0.63,0.359,-0.56,-0.987
0.243,0.857,0.41,-2.87,1.12,-1.4,0.358,-0.562,-0.985
0.187,0.906,0.38,-1.54,-0.28,-3.5,0.358,-0.561,-0.986
0.2,0.845,0.394,1.4,0.0,-3.57,0.357,-0.566,-0.986
0.173,0.834,0.384,0.84,0.49,-2.73,0.356,-0.565,-0.986
0.203,0.816,0.371,-0.14,1.75,-2.45,0.354,-0.561,-0.994
0.186,0.835,0.371,0.49,1.19,-1.61,0.356,-0.557,-0.984
0.209,0.796,0.376,0.42,1.68,-3.92,0.356,-0.564,-0.986
0.169,0.825,0.306,3.01,-0.63,-3.57,0.356,-0.562,-0.983
0.147,0.811,0.369,6.16,0.14,-2.38,0.358,-0.562,-0.985
0.156,0.821,0.346,4.2,1.82,-3.29,0.357,-0.56,-0.981
0.149,0.823,0.388,3.85,0.28,-4.62,0.361,-0.559,-0.991
0.197,0.759,0.394,6.09,1.26,-6.09,0.36,-0.556,-0.991
0.149,0.737,0.395,6.72,-1.12,-5.6,0.361,-0.555,-0.988
0.106,0.766,0.325,6.3,-0.56,-4.62,0.363,-0.56,-0.987
0.107,0.807,0.306,5.6,-2.66,-5.11,0.365,-0.557,-0.987
0.152,0.805,0.263,13.02,-7.56,-8.75,0.367,-0.558,-0.991
0.138,0.855,0.276,26.53,-19.88,-11.9,0.368,-0.555,-1.001
0.024,0.718,0.637,37.1,-27.58,-15.05,0.369,-0.555,-1.006
0.019,0.588,0.653,22.4,-17.43,-17.78,0.371,-0.554,-1.006
0.067,0.7,0.551,6.44,-9.87,-10.15,0.374,-0.556,-1.036
0.006,0.922,0.302,3.85,-11.62,-13.23,0.37,-0.555,-1.008
-0.017,1.002,0.277,25.83,-23.1,-26.39,0.374,-0.55,-1.011
-0.031,0.972,0.395,54.669,-38.22,-45.78,0.378,-0.547,-1.024
-0.032,0.976,0.426,82.11,-48.79,-52.08,0.382,-0.545,-1.035
0.052,0.685,0.488,107.87,-54.74,-62.72,0.389,-0.542,-1.042
0.06,0.568,0.515,87.01,-52.15,-64.89,0.398,-0.53,-1.063
0.11,0.636,0.489,53.409,-46.83,-68.46,0.398,-0.527,-1.072
0.192,0.839,0.461,47.6,-45.57,-66.64,0.409,-0.514,-1.086
0.262,0.835,0.526,61.74,-49.7,-68.88,0.409,-0.513,-1.089
0.174,0.724,0.556,69.37,-52.08,-74.2,0.419,-0.502,-1.092
0.109,0.648,0.49,51.1,-49.21,-85.47,0.423,-0.491,-1.108
0.122,0.627,0.515,29.26,-49.56,-90.51,0.429,-0.486,-1.108
0.148,0.567,0.506,17.5,-50.33,-91.0,0.433,-0.482,-1.12
0.185,0.686,0.531,16.1,-52.15,-86.17,0.445,-0.471,-1.122
0.15,0.811,0.522,43.12,-51.87,-87.15,0.447,-0.464,-1.126
0.144,0.681,0.543,62.58,-50.05,-86.87,0.455,-0.448,-1.147
0.172,0.546,0.488,54.46,-44.38,-90.51,0.459,-0.44,-1.152
0.25,0.334,0.566,58.59,-49.21,-82.25,0.457,-0.437,-1.16
0.235,0.382,0.593,47.32,-45.99,-71.4,0.463,-0.418,-1.171
0.201,0.423,0.746,53.62,-38.29,-59.22,0.464,-0.413,-1.175
0.085,0.479,0.796,76.51,-22.05,-58.03,0.47,-0.4,-1.18
0.188,0.323,0.704,79.659,-11.83,-54.88,0.467,-0.39,-1.194
0.231,0.185,0.742,44.52,-4.62,-53.27,0.472,-0.383,-1.193
0.219,0.128,0.81,-4.48,3.01,-45.36,0.478,-0.376,-1.193
0.231,0.12,0.788,-24.78,11.69,-30.87,0.477,-0.377,-1.192
0.286,0.295,0.821,-27.09,22.75,-21.0,0.479,-0.375,-1.187
0.313,0.593,0.783,-1.89,36.75,-6.86,0.484,-0.371,-1.185
0.333,0.565,0.671,43.4,49.21,-4.83,0.487,-0.373,-1.184
0.297,0.176,0.367,74.76,60.27,-3.01,0.486,-0.366,-1.178
0.174,-0.002,0.495,41.37,66.71,18.2,0.489,-0.363,-1.177
0.274,0.021,0.823,-20.93,78.26,44.38,0.493,-0.364,-1.164
0.509,0.154,0.688,-89.11,90.79,45.57,0.493,-0.376,-1.153
0.698,0.186,0.368,-130.34,93.31,30.52,0.492,-0.38,-1.137
0.856,0.21,0.012,-142.8,84.98,36.75,0.496,-0.398,-1.119
1.053,0.196,-0.131,-133.77,61.74,62.23,0.492,-0.409,-1.1
1.222,0.193,0.712,-109.76,-15.61,115.85,0.483,-0.429,-1.088
0.834,0.715,1.089,-91.49,-24.85,131.46,0.468,-0.441,-1.082
0.739,0.836,0.57,-101.36,14.77,92.12,0.456,-0.449,-1.073
0.95,0.71,0.05,-98.0,23.45,70.0,0.448,-0.466,-1.067
1.07,0.652,0.1,-68.39,-7.35,102.69,0.441,-0.471,-1.057
1.05,0.786,0.943,-30.31,-48.86,141.82,0.413,-0.485,-1.063
0.805,0.966,1.171,-32.55,-35.91,133.35,0.407,-0.489,-1.057
0.728,0.864,0.866,-70.14,2.1,101.78,0.395,-0.495,-1.052
0.854,1.011,0.282,-114.1,11.62,110.95,0.374,-0.509,-1.032
0.973,1.302,0.262,-55.72,-24.22,121.8,0.36,-0.512,-1.028
0.738,1.356,0.847,46.76,-66.5,118.65,0.35,-0.52,-1.028
0.501,1.095,1.09,85.61,-78.4,87.5,0.32,-0.517,-1.046
0.371,0.991,1.144,46.9,-64.82,69.44,0.314,-0.517,-1.053
0.356,1.038,0.954,-1.61,-51.17,56.77,0.296,-0.517,-1.058
0.411,0.991,0.607,-20.79,-44.94,39.69,0.292,-0.517,-1.056
0.408,0.914,0.409,28.77,-64.61,21.63,0.283,-0.518,-1.065
0.233,0.885,0.797,64.61,-73.08,19.25,0.28,-0.522,-1.073
0.192,0.798,0.95,75.32,-76.93,14.98,0.273,-0.512,-1.084
0.125,0.757,0.981,65.24,-71.26,10.64,0.263,-0.512,-1.102
0.069,0.753,0.867,43.12,-59.43,8.68,0.261,-0.509,-1.101
0.078,0.792,0.722,28.07,-50.75,3.64,0.255,-0.511,-1.114
0.057,0.859,0.701,33.53,-50.4,-7.14,0.257,-0.504,-1.116
0.029,0.82,0.738,45.36,-55.23,-11.2,0.216,-0.501,-1.12
0.006,0.705,0.772,44.03,-56.84,-16.59,0.25,-0.497,-1.13
-0.007,0.638,0.758,28.56,-49.49,-12.95,0.249,-0.497,-1.139
-0.006,0.697,0.732,10.71,-41.3,-8.33,0.249,-0.497,-1.141
-0.009,0.777,0.694,0.7,-34.86,-9.8,0.245,-0.496,-1.147
-0.026,0.807,0.726,5.88,-32.69,-7.49,0.246,-0.499,-1.148
-0.072,0.81,0.804,11.48,-32.13,-3.08,0.244,-0.498,-1.142
-0.122,0.697,0.776,5.18,-28.21,-3.36,0.243,-0.497,-1.143
-0.137,0.709,0.753,-2.03,-14.28,2.94,0.238,-0.493,-1.148
-0.133,0.742,0.654,-7.42,-4.62,1.05,0.237,-0.496,-1.149
-0.11,0.704,0.641,-11.13,-1.54,-1.96,0.238,-0.496,-1.15
-0.11,0.646,0.617,-18.69,-1.33,-0.42,0.235,-0.496,-1.142
-0.106,0.678,0.609,-21.42,-0.35,1.05,0.239,-0.497,-1.148
-0.104,0.703,0.625,-23.45,1.61,0.07,0.235,-0.498,-1.139
-0.078,0.706,0.637,-23.38,2.17,2.03,0.236,-0.498,-1.138
-0.064,0.718,0.601,-24.15,0.14,4.41,0.233,-0.502,-1.132
-0.051,0.75,0.59,-20.58,-0.84,4.83,0.227,-0.5,-1.135
-0.009,0.832,0.71,-11.27,-2.8,5.18,0.229,-0.499,-1.137
-0.002,1.393,1.002,7.77,2.45,3.57,0.222,-0.494,-1.128
0.122,1.244,0.639,2.8,-7.49,-7.28,0.223,-0.497,-1.131
0.152,0.87,0.712,79.59,-42.7,-6.86,0.222,-0.493,-1.137
0.005,0.88,0.754,95.62,-46.9,-17.5,0.224,-0.486,-1.15
-0.068,0.726,0.721,68.879,-28.28,-47.11,0.222,-0.48,-1.16
0.058,0.486,0.716,47.32,-24.78,-30.52,0.229,-0.471,-1.164
0.036,0.507,0.681,12.04,-24.15,-22.54,0.227,-0.475,-1.167
-0.05,0.556,0.653,7.56,-24.22,-28.63,0.227,-0.473,-1.169
-0.007,0.632,0.723,12.88,-19.39,-26.11,0.231,-0.471,-1.167
0.063,0.659,0.628,17.71,-9.1,-16.38,0.229,-0.465,-1.167
0.053,0.631,0.656,37.38,-12.25,-7.91,0.228,-0.466,-1.175
0.014,0.691,0.715,43.54,-7.77,1.89,0.227,-0.464,-1.18
0.056,0.758,0.735,49.07,-2.45,0.0,0.228,-0.462,-1.184
0.076,0.661,0.715,63.0,-7.56,-1.68,0.227,-0.453,-1.192
0.021,0.538,0.78,70.629,-14.42,-1.19,0.226,-0.452,-1.196
-0.024,0.495,0.833,53.34,-11.2,0.56,0.223,-0.448,-1.2
-0.01,0.525,0.82,25.9,-6.3,0.21,0.219,-0.441,-1.202
0.02,0.578,0.791,3.92,-5.67,-1.19,0.224,-0.438,-1.201
0.016,0.621,0.759,-5.6,-6.58,-2.87,0.227,-0.443,-1.205
-0.002,0.649,0.748,-5.6,-7.42,-4.55,0.222,-0.444,-1.199
0.0,0.653,0.75,5.18,-9.59,-4.76,0.226,-0.441,-1.197
-0.011,0.627,0.76,11.76,-12.32,-4.41,0.217,-0.439,-1.206
-0.037,0.598,0.786,15.75,-12.88,-4.62,0.22,-0.437,-1.21
-0.034,0.578,0.819,9.73,-10.71,-4.34,0.218,-0.434,-1.213
-0.006,0.571,0.817,0.77,-8.19,-3.01,0.221,-0.43,-1.203
-0.01,0.581,0.816,-2.59,-7.42,-1.54,0.219,-0.434,-1.205
-0.026,0.587,0.796,-3.92,-6.37,-1.12,0.218,-0.434,-1.208
-0.025,0.578,0.79,-4.55,-5.18,0.49,0.22,-0.435,-1.205
-0.017,0.608,0.807,-4.69,-4.55,1.47,0.222,-0.438,-1.217
-0.017,0.63,0.81,-5.81,-3.64,0.49,0.22,-0.437,-1.207
-0.029,0.641,0.81,-5.32,-2.94,-0.84,0.217,-0.435,-1.204
-0.041,0.646,0.812,-1.61,-2.59,-1.68,0.218,-0.436,-1.205
-0.046,0.624,0.803,0.42,-2.52,-2.17,0.213,-0.433,-1.21
-0.052,0.593,0.79,0.7,-1.82,-2.38,0.217,-0.435,-1.211
-0.046,0.589,0.791,-1.75,-0.35,-1.19,0.216,-0.434,-1.213
-0.028,0.609,0.783,-5.74,1.54,-0.63,0.217,-0.437,-1.207
-0.011,0.622,0.77,-4.69,0.42,-0.14,0.217,-0.438,-1.21
-0.004,0.623,0.761,-2.73,-0.35,0.07,0.218,-0.441,-1.208
-0.003,0.62,0.759,-0.28,-0.35,0.56,0.215,-0.441,-1.214
-0.015,0.615,0.758,2.03,-1.47,0.7,0.22,-0.444,-1.208
-0.027,0.608,0.762,3.36,-2.31,0.91,0.219,-0.444,-1.202
-0.029,0.605,0.763,3.01,-2.66,1.4,0.219,-0.439,-1.206
-0.028,0.604,0.773,0.14,-3.08,1.47,0.219,-0.438,-1.202
-0.041,0.62,0.783,-0.7,-3.08,1.26,0.218,-0.438,-1.195
-0.031,0.621,0.782,-0.91,-2.38,1.4,0.214,-0.435,-1.198
-0.032,0.616,0.782,0.07,-2.73,1.75,0.22,-0.44,-1.2
-0.031,0.607,0.782,1.96,-2.38,2.31,0.216,-0.441,-1.198
-0.029,0.605,0.787,2.1,-2.45,1.96,0.216,-0.436,-1.204
-0.025,0.604,0.781,0.77,-1.82,2.94,0.216,-0.441,-1.201
-0.026,0.605,0.77,0.49,-2.38,3.22,0.21,-0.437,-1.204
-0.034,0.617,0.777,0.56,-1.82,3.15,0.212,-0.439,-1.207
-0.032,0.631,0.776,0.7,-1.47,2.8,0.212,-0.439,-1.202
-0.027,0.629,0.777,0.91,-2.17,2.52,0.213,-0.441,-1.203
