ax,ay,az,gx,gy,gz,mx,my,mz
-0.951,0.376,0.033,0.0,1.82,6.51,-0.187,-0.27,-0.801
-0.935,0.385,0.067,8.61,0.35,8.89,-0.191,-0.269,-0.809
-0.889,0.414,-0.009,17.08,-0.91,11.06,-0.191,-0.268,-0.799
-0.859,0.367,-0.064,28.14,-19.6,11.83,-0.188,-0.269,-0.804
-0.928,0.378,-0.062,33.46,-26.25,6.44,-0.19,-0.271,-0.803
-1.022,0.314,-0.062,30.38,-19.53,9.17,-0.185,-0.268,-0.803
-1.009,0.322,-0.069,23.03,-10.15,12.95,-0.19,-0.273,-0.801
-0.985,0.326,-0.065,17.08,-3.01,12.95,-0.194,-0.27,-0.796
-0.97,0.336,-0.051,10.92,-1.05,15.05,-0.188,-0.268,-0.801
-0.953,0.371,-0.053,4.48,-1.12,14.42,-0.191,-0.267,-0.801
-0.946,0.366,-0.062,3.15,-0.84,9.66,-0.193,-0.264,-0.807
-0.958,0.37,-0.061,2.87,-2.73,8.33,-0.19,-0.262,-0.801
-0.983,0.364,-0.05,2.03,-3.36,6.58,-0.189,-0.261,-0.799
-0.995,0.35,-0.046,0.42,-0.35,5.95,-0.189,-0.267,-0.792
-0.987,0.346,-0.053,-1.54,3.43,5.74,-0.188,-0.265,-0.793
-0.981,0.341,-0.023,-2.38,6.23,6.44,-0.194,-0.262,-0.796
-0.949,0.351,-0.013,-4.13,10.15,7.14,-0.192,-0.255,-0.802
-0.903,0.353,-0.01,-3.92,10.08,6.79,-0.199,-0.262,-0.803
-0.885,0.347,-0.015,-3.43,6.86,6.3,-0.196,-0.258,-0.806
-0.899,0.34,-0.014,-3.01,1.4,6.23,-0.196,-0.256,-0.81
-0.929,0.333,-0.021,-3.99,2.52,7.07,-0.194,-0.253,-0.806
-0.92,0.337,-0.028,-5.81,5.25,7.77,-0.195,-0.254,-0.799
-0.899,0.345,-0.025,-6.58,6.86,8.19,-0.197,-0.248,-0.797
-0.879,0.352,-0.02,-5.88,6.93,8.61,-0.2,-0.25,-0.802
-0.861,0.351,-0.014,-4.2,5.81,9.1,-0.205,-0.252,-0.8
-0.854,0.351,-0.005,-2.1,3.36,8.4,-0.201,-0.248,-0.798
-0.849,0.346,0.007,0.63,2.1,7.84,-0.202,-0.249,-0.797
-0.842,0.336,0.007,1.12,1.12,7.42,-0.2,-0.247,-0.802
-0.838,0.328,0.006,0.7,1.19,7.0,-0.198,-0.245,-0.8
-0.839,0.318,0.001,-1.61,1.61,5.88,-0.197,-0.248,-0.814
-0.848,0.315,-0.005,-4.55,2.52,5.53,-0.201,-0.249,-0.806
-0.864,0.318,-0.01,-7.7,4.06,4.83,-0.2,-0.245,-0.803
-0.88,0.325,-0.013,-10.36,5.39,4.97,-0.198,-0.241,-0.805
-0.891,0.334,-0.014,-11.9,6.23,6.51,-0.2,-0.235,-0.806
-0.895,0.337,-0.005,-11.76,6.37,7.7,-0.201,-0.242,-0.805
-0.885,0.337,0.007,-11.97,5.95,9.1,-0.201,-0.241,-0.808
-0.877,0.334,0.0,-13.02,3.5,9.66,-0.197,-0.237,-0.807
-0.9,0.336,0.001,-13.72,1.19,10.43,-0.203,-0.232,-0.803
-0.925,0.339,0.01,-13.79,1.26,11.55,-0.204,-0.227,-0.803
-0.93,0.34,0.014,-13.79,1.68,13.23,-0.201,-0.227,-0.799
-0.934,0.346,0.02,-13.44,0.42,15.19,-0.202,-0.223,-0.799
-0.934,0.324,0.056,-16.73,-2.1,19.11,-0.205,-0.219,-0.802
-0.88,0.305,0.16,-30.52,-5.53,17.85,-0.202,-0.217,-0.798
-0.886,0.292,0.194,-51.1,-9.31,13.86,-0.207,-0.216,-0.802
-0.934,0.351,0.239,-69.72,-7.7,10.22,-0.21,-0.21,-0.796
-0.936,0.398,0.205,-79.87,6.44,8.47,-0.208,-0.203,-0.794
-0.888,0.459,0.143,-76.3,21.07,13.3,-0.208,-0.196,-0.8
-0.857,0.535,0.098,-52.71,32.48,17.36,-0.208,-0.196,-0.802
-0.823,0.537,0.101,-12.95,38.29,18.97,-0.207,-0.188,-0.802
-0.768,0.447,0.097,19.46,38.64,28.98,-0.214,-0.191,-0.807
-0.671,0.271,0.093,32.97,30.8,32.62,-0.22,-0.186,-0.81
-0.652,0.223,0.09,17.29,24.99,28.35,-0.221,-0.182,-0.821
-0.661,0.206,0.012,-8.05,20.58,21.56,-0.224,-0.183,-0.826
-0.816,0.232,-0.027,-30.8,11.69,17.57,-0.225,-0.179,-0.821
-1.042,0.29,-0.02,-48.3,3.85,16.45,-0.225,-0.169,-0.823
-1.078,0.361,-0.037,-47.11,17.22,29.47,-0.227,-0.162,-0.819
-0.784,0.462,-0.068,-24.78,18.06,37.1,-0.231,-0.16,-0.817
-0.693,0.519,-0.061,8.61,1.4,36.96,-0.233,-0.152,-0.822
-0.809,0.547,-0.043,53.129,-22.82,29.05,-0.233,-0.153,-0.829
-1.059,0.518,0.0,97.58,-42.56,20.51,-0.224,-0.16,-0.816
-1.248,0.427,-0.048,126.35,-44.03,14.14,-0.225,-0.159,-0.808
-1.216,0.315,-0.083,136.57,-31.29,7.77,-0.222,-0.175,-0.805
-1.052,0.267,-0.076,127.33,-16.73,-15.75,-0.225,-0.178,-0.808
-0.865,0.164,-0.05,93.45,-3.64,-40.04,-0.22,-0.186,-0.802
-0.83,0.167,-0.031,59.29,0.35,-62.58,-0.217,-0.199,-0.802
-0.863,0.184,-0.044,34.72,2.17,-85.75,-0.213,-0.213,-0.803
-0.938,0.179,-0.068,18.97,5.32,-100.17,-0.205,-0.227,-0.797
-0.993,0.161,-0.081,10.5,13.16,-106.82,-0.2,-0.239,-0.801
-0.997,0.172,-0.082,5.18,21.84,-111.37,-0.201,-0.258,-0.8
-1.046,0.159,-0.085,-2.59,23.8,-110.53,-0.196,-0.265,-0.802
-1.144,0.16,-0.088,-10.29,20.79,-109.13,-0.195,-0.28,-0.804
-1.197,0.154,-0.121,-19.6,22.05,-111.02,-0.193,-0.293,-0.803
-1.227,0.162,-0.148,-27.09,26.11,-114.1,-0.187,-0.298,-0.807
-1.251,0.167,-0.162,-31.29,26.46,-117.11,-0.177,-0.312,-0.808
-1.241,0.177,-0.165,-28.35,26.11,-115.85,-0.176,-0.321,-0.807
-1.182,0.174,-0.129,-9.52,20.58,-104.58,-0.172,-0.33,-0.814
-1.069,0.159,-0.132,5.88,11.34,-91.49,-0.166,-0.343,-0.811
-1.018,0.135,-0.111,18.34,0.42,-77.28,-0.157,-0.355,-0.821
-0.976,0.11,-0.098,26.04,-8.19,-61.53,-0.153,-0.369,-0.817
-0.939,0.097,-0.081,29.82,-16.52,-45.43,-0.149,-0.372,-0.824
-0.926,0.092,-0.072,31.29,-22.61,-28.77,-0.149,-0.378,-0.826
-0.913,0.085,-0.07,29.75,-26.18,-5.04,-0.141,-0.381,-0.822
-0.88,0.075,-0.07,20.23,-24.85,8.89,-0.139,-0.381,-0.824
-0.87,0.076,-0.057,7.7,-22.47,21.14,-0.14,-0.38,-0.817
-0.914,0.11,-0.032,-6.58,-19.88,30.38,-0.141,-0.378,-0.814
-0.978,0.127,-0.025,-20.51,-19.95,39.62,-0.142,-0.371,-0.808
-1.035,0.18,-0.029,-31.15,-20.09,55.37,-0.146,-0.367,-0.804
-1.062,0.208,-0.04,-31.43,-18.41,75.389,-0.148,-0.361,-0.801
-1.108,0.232,-0.054,-29.12,-17.08,89.04,-0.159,-0.348,-0.799
-1.149,0.238,-0.046,-27.23,-15.54,98.63,-0.161,-0.342,-0.797
-1.187,0.249,-0.047,-29.12,-14.28,105.49,-0.169,-0.32,-0.788
-1.225,0.263,-0.051,-32.69,-13.58,110.53,-0.173,-0.311,-0.789
-1.257,0.279,-0.054,-35.49,-11.41,114.1,-0.178,-0.297,-0.786
-1.274,0.29,-0.057,-37.94,-8.96,115.57,-0.182,-0.277,-0.773
-1.289,0.305,-0.054,-40.67,-4.83,115.43,-0.188,-0.268,-0.776
-1.279,0.327,-0.054,-42.07,-3.22,113.12,-0.192,-0.243,-0.775
-1.252,0.341,-0.055,-41.3,-1.54,109.34,-0.197,-0.237,-0.771
-1.236,0.355,-0.054,-39.41,-1.4,103.74,-0.198,-0.227,-0.774
-1.231,0.369,-0.052,-36.47,-1.68,97.3,-0.204,-0.211,-0.771
-1.222,0.391,-0.039,-31.01,-1.75,89.46,-0.204,-0.199,-0.776
-1.197,0.415,-0.02,-15.68,-2.94,77.139,-0.204,-0.184,-0.775
-1.168,0.433,-0.008,-1.82,-4.41,69.02,-0.205,-0.176,-0.775
-1.129,0.406,-0.008,10.99,-4.69,60.83,-0.21,-0.168,-0.776
-1.11,0.377,-0.013,17.71,-3.15,50.82,-0.208,-0.161,-0.78
-1.1,0.352,-0.023,17.85,-0.49,38.36,-0.209,-0.158,-0.78
-1.095,0.341,-0.026,13.65,3.36,27.16,-0.209,-0.155,-0.777
-1.089,0.347,-0.016,9.87,7.56,16.87,-0.21,-0.155,-0.776
-1.063,0.344,-0.024,7.14,9.8,8.12,-0.209,-0.155,-0.776
-1.031,0.337,-0.025,6.72,12.04,-1.19,-0.211,-0.157,-0.78
-0.982,0.315,-0.028,5.39,13.79,-8.12,-0.209,-0.154,-0.78
-0.97,0.312,-0.027,2.38,14.42,-16.8,-0.214,-0.157,-0.784
-0.976,0.309,-0.028,0.42,15.19,-26.39,-0.212,-0.163,-0.78
-0.985,0.304,-0.032,0.21,16.31,-34.79,-0.214,-0.168,-0.782
-0.992,0.3,-0.038,0.77,18.06,-42.21,-0.213,-0.173,-0.79
-0.997,0.289,-0.043,1.75,19.39,-49.98,-0.214,-0.175,-0.794
-1.016,0.282,-0.048,1.68,20.58,-60.2,-0.217,-0.181,-0.794
-1.039,0.271,-0.069,1.4,21.35,-66.08,-0.216,-0.193,-0.793
-1.037,0.27,-0.082,1.47,22.12,-71.12,-0.214,-0.202,-0.8
-1.038,0.272,-0.081,2.52,20.51,-76.37,-0.213,-0.204,-0.8
-1.048,0.266,-0.082,4.97,18.27,-80.29,-0.212,-0.214,-0.798
-1.041,0.256,-0.083,8.75,15.96,-81.55,-0.21,-0.225,-0.803
-1.005,0.241,-0.076,13.3,14.28,-80.57,-0.208,-0.232,-0.8
-0.965,0.224,-0.06,17.15,10.99,-76.3,-0.209,-0.24,-0.807
-0.931,0.21,-0.036,20.3,3.92,-71.82,-0.205,-0.26,-0.804
-0.926,0.211,-0.018,22.82,-0.07,-65.8,-0.202,-0.264,-0.806
-0.908,0.203,-0.001,26.67,-2.73,-58.38,-0.196,-0.278,-0.812
-0.895,0.195,0.01,30.59,-4.83,-49.91,-0.194,-0.279,-0.813
-0.9,0.185,0.02,32.76,-7.0,-42.56,-0.199,-0.287,-0.814
-0.919,0.173,0.026,31.64,-8.75,-36.33,-0.191,-0.293,-0.812
-0.938,0.165,0.028,25.27,-7.28,-27.65,-0.187,-0.302,-0.811
-0.965,0.158,0.024,17.71,-6.09,-23.17,-0.188,-0.304,-0.811
-0.983,0.163,0.016,8.96,-4.83,-18.55,-0.184,-0.305,-0.812
-1.009,0.174,0.0,1.26,-4.27,-14.0,-0.186,-0.311,-0.811
-1.027,0.193,-0.022,-3.85,-5.04,-9.59,-0.188,-0.31,-0.81
-1.034,0.213,-0.039,-5.74,-5.32,-4.41,-0.183,-0.313,-0.807
-1.02,0.231,-0.043,-2.31,-9.66,5.04,-0.185,-0.311,-0.814
-0.938,0.242,-0.025,3.85,-14.21,12.53,-0.18,-0.313,-0.806
-0.868,0.251,-0.007,12.11,-20.72,19.46,-0.182,-0.306,-0.803
-0.829,0.253,0.0,20.79,-27.86,24.22,-0.181,-0.301,-0.803
-0.839,0.23,0.009,27.37,-33.81,29.26,-0.183,-0.305,-0.798
-0.878,0.208,0.007,29.47,-36.12,34.93,-0.185,-0.307,-0.794
-0.905,0.196,0.012,25.97,-34.44,41.02,-0.183,-0.301,-0.799
-0.907,0.201,0.02,16.38,-26.18,50.96,-0.183,-0.293,-0.794
-0.917,0.212,0.034,8.47,-24.15,57.61,-0.187,-0.29,-0.788
-0.983,0.233,0.047,1.19,-24.08,62.58,-0.182,-0.286,-0.786
-1.049,0.249,0.039,-5.53,-23.52,66.5,-0.19,-0.28,-0.787
-1.086,0.276,0.025,-9.38,-18.76,69.23,-0.193,-0.274,-0.781
-1.095,0.295,0.015,-11.27,-13.58,67.62,-0.192,-0.26,-0.782
-1.106,0.308,0.022,-12.74,-10.29,60.62,-0.197,-0.254,-0.776
-1.116,0.324,0.028,-12.95,-7.35,52.99,-0.191,-0.244,-0.775
-1.087,0.324,0.021,-12.95,-3.99,45.08,-0.193,-0.237,-0.777
-1.055,0.323,0.002,-13.65,-1.12,36.89,-0.196,-0.233,-0.776
-1.054,0.316,-0.016,-15.75,2.24,28.14,-0.197,-0.227,-0.778
-1.083,0.308,-0.031,-20.79,4.83,20.23,-0.202,-0.225,-0.778
-1.116,0.319,-0.043,-26.95,7.84,13.44,-0.203,-0.223,-0.778
-1.151,0.328,-0.064,-31.99,9.8,5.81,-0.204,-0.222,-0.787
-1.231,0.35,-0.101,-37.17,9.87,1.96,-0.205,-0.216,-0.78
-1.282,0.363,-0.135,-39.27,10.43,-1.61,-0.205,-0.211,-0.778
-1.297,0.368,-0.16,-39.27,11.69,-4.48,-0.206,-0.209,-0.783
-1.276,0.378,-0.172,-37.38,12.39,-7.91,-0.206,-0.21,-0.782
-1.241,0.39,-0.176,-32.55,10.78,-13.51,-0.208,-0.206,-0.778
-1.229,0.397,-0.17,-17.71,4.2,-22.75,-0.206,-0.21,-0.778
-1.259,0.382,-0.178,-6.23,-1.26,-28.84,-0.204,-0.211,-0.777
-1.304,0.355,-0.193,3.08,-4.13,-33.95,-0.203,-0.218,-0.779
-1.343,0.266,-0.215,9.1,-4.34,-37.52,-0.204,-0.218,-0.779
-1.332,0.157,-0.202,10.71,-2.87,-35.56,-0.199,-0.227,-0.772
-1.312,0.085,-0.173,10.64,-1.33,-30.31,-0.194,-0.225,-0.775
-1.256,0.055,-0.109,10.5,-2.1,-16.24,-0.199,-0.231,-0.771
-1.153,0.075,-0.047,12.81,-2.87,-6.02,-0.196,-0.234,-0.781
-1.075,0.084,-0.039,18.9,-9.8,0.21,-0.2,-0.235,-0.776
-1.17,0.083,-0.032,26.46,-20.02,4.27,-0.198,-0.235,-0.778
-1.25,0.096,-0.015,39.55,-21.56,6.09,-0.195,-0.238,-0.776
-1.204,0.119,0.015,58.94,-15.12,7.77,-0.194,-0.244,-0.773
-1.105,0.104,0.041,79.31,-10.78,8.89,-0.194,-0.242,-0.772
-1.036,0.043,0.046,89.11,-11.62,7.91,-0.193,-0.248,-0.768
-0.997,-0.032,-0.002,87.71,-7.42,4.41,-0.193,-0.253,-0.777
-0.965,-0.137,-0.08,72.45,2.52,-1.82,-0.191,-0.259,-0.786
-0.922,-0.22,-0.172,15.61,27.51,-13.72,-0.194,-0.26,-0.781
-0.907,-0.26,-0.252,-34.02,44.8,-24.99,-0.196,-0.263,-0.791
-0.888,-0.203,-0.288,-80.5,57.75,-33.18,-0.198,-0.261,-0.789
-0.875,-0.123,-0.305,-107.94,58.31,-37.94,-0.199,-0.258,-0.795
-0.901,-0.039,-0.273,-111.44,51.24,-35.84,-0.2,-0.259,-0.8
-0.918,-0.006,-0.235,-100.17,41.51,-32.48,-0.205,-0.252,-0.796
-0.891,-0.02,-0.218,-84.77,35.0,-26.53,-0.207,-0.252,-0.799
-0.907,-0.058,-0.222,-75.74,28.84,-23.45,-0.205,-0.251,-0.799
-0.925,-0.052,-0.227,-93.66,27.16,-21.21,-0.205,-0.247,-0.804
-0.885,0.026,-0.125,-104.02,30.03,-19.04,-0.205,-0.247,-0.804
-0.848,0.129,-0.055,-107.59,25.41,-13.02,-0.208,-0.241,-0.803
-0.778,0.192,-0.09,-106.82,18.62,-6.65,-0.211,-0.24,-0.801
-0.787,0.273,-0.138,-96.39,12.53,-3.01,-0.206,-0.235,-0.8
-0.886,0.373,-0.122,-86.8,-0.84,-3.08,-0.204,-0.228,-0.799
-0.934,0.479,-0.017,-69.86,-8.75,-0.98,-0.21,-0.227,-0.793
-0.775,0.527,0.073,-36.05,-6.02,2.1,-0.21,-0.224,-0.795
-0.544,0.524,0.072,7.56,-8.54,5.95,-0.204,-0.225,-0.797
-0.339,0.466,-0.002,27.16,-12.95,1.75,-0.206,-0.224,-0.794
-0.356,0.373,-0.054,38.78,-22.33,-4.76,-0.205,-0.225,-0.794
-0.482,0.347,-0.027,36.82,-39.83,-3.36,-0.202,-0.221,-0.799
-0.789,0.438,0.044,24.99,-49.42,0.84,-0.196,-0.226,-0.79
-1.061,0.445,-0.004,17.01,-35.49,2.66,-0.2,-0.227,-0.786
-1.114,0.491,-0.033,15.54,-17.5,21.7,-0.197,-0.229,-0.784
-0.997,0.629,-0.021,21.91,-20.02,41.65,-0.197,-0.224,-0.787
-0.998,0.654,0.009,35.49,-30.73,41.58,-0.204,-0.219,-0.789
-0.993,0.676,0.01,46.97,-34.3,41.09,-0.204,-0.219,-0.778
-0.962,0.667,-0.02,55.58,-31.99,35.98,-0.199,-0.216,-0.778
-0.966,0.612,-0.041,60.34,-30.66,27.09,-0.199,-0.216,-0.776
-1.012,0.524,-0.072,55.51,-27.44,16.52,-0.194,-0.22,-0.772
-1.057,0.447,-0.076,41.02,-18.55,4.9,-0.194,-0.219,-0.775
-1.029,0.416,-0.055,18.83,-5.18,-4.76,-0.194,-0.224,-0.777
-0.932,0.419,-0.004,-6.23,4.62,-11.55,-0.19,-0.228,-0.779
-0.809,0.431,-0.022,-11.41,3.43,-13.72,-0.197,-0.227,-0.778
-0.781,0.433,-0.012,-9.8,-0.07,-15.4,-0.194,-0.224,-0.779
-0.779,0.436,-0.006,-2.38,-2.8,-16.1,-0.196,-0.229,-0.774
-0.775,0.427,-0.012,9.52,-3.99,-15.54,-0.193,-0.232,-0.777
-0.777,0.408,-0.018,23.87,-4.76,-14.7,-0.195,-0.235,-0.781
-0.805,0.38,-0.011,37.24,-6.02,-12.95,-0.192,-0.238,-0.782
-0.84,0.372,-0.006,48.86,-6.93,-9.1,-0.189,-0.241,-0.778
-0.866,0.358,0.002,52.429,-4.9,-6.72,-0.186,-0.245,-0.781
-0.864,0.327,0.004,50.399,-2.52,-4.76,-0.187,-0.248,-0.775
-0.857,0.32,-0.003,43.96,0.0,-4.69,-0.187,-0.256,-0.782
-0.861,0.321,-0.013,35.07,3.15,-5.46,-0.189,-0.26,-0.781
-0.871,0.339,-0.013,27.72,6.51,-6.58,-0.189,-0.257,-0.785
-0.868,0.366,-0.026,23.73,9.66,-7.7,-0.192,-0.262,-0.778
-0.879,0.352,-0.043,25.06,12.18,-7.63,-0.187,-0.261,-0.779
-0.9,0.319,-0.036,16.87,13.93,-6.79,-0.19,-0.266,-0.786
-0.918,0.306,-0.043,4.27,17.01,-7.91,-0.19,-0.267,-0.783
-0.919,0.321,-0.042,-6.86,19.39,-9.87,-0.19,-0.271,-0.787
-0.933,0.348,-0.04,-13.86,20.16,-11.34,-0.189,-0.268,-0.787
-0.945,0.355,-0.032,-15.54,20.44,-11.55,-0.188,-0.271,-0.788
-0.94,0.351,-0.018,-13.3,20.72,-10.43,-0.185,-0.268,-0.788
-0.931,0.324,-0.018,-11.13,20.37,-8.75,-0.195,-0.269,-0.799
-0.935,0.309,-0.008,-10.78,20.16,-6.51,-0.194,-0.273,-0.803
-0.905,0.305,-0.006,-10.78,22.47,-4.83,-0.195,-0.27,-0.807
-0.858,0.309,-0.014,-6.72,24.22,0.7,-0.192,-0.274,-0.806
-0.865,0.312,-0.04,-2.8,19.88,6.93,-0.198,-0.266,-0.812
-0.913,0.305,-0.037,2.38,16.38,15.68,-0.2,-0.269,-0.813
-0.956,0.307,-0.028,5.81,14.98,25.9,-0.199,-0.265,-0.817
-0.993,0.311,-0.021,5.46,11.97,34.93,-0.201,-0.26,-0.812
-1.016,0.326,-0.015,1.47,7.28,43.96,-0.206,-0.253,-0.82
-1.0,0.35,-0.018,-3.01,3.78,50.54,-0.205,-0.251,-0.821
-0.95,0.407,0.011,-5.46,2.1,52.36,-0.208,-0.244,-0.817
-0.863,0.433,0.038,-3.78,-0.35,48.37,-0.245,-0.238,-0.822
-0.831,0.438,0.057,-1.19,-4.27,41.09,-0.215,-0.231,-0.829
-0.831,0.432,0.049,0.0,-7.84,30.45,-0.218,-0.233,-0.824
-0.868,0.431,0.047,0.42,-9.52,18.55,-0.215,-0.226,-0.824
-0.925,0.435,0.062,2.31,-7.42,7.49,-0.215,-0.222,-0.829
-0.959,0.432,0.076,3.85,-3.99,-1.4,-0.213,-0.224,-0.824
-0.969,0.426,0.089,6.93,-0.28,-10.5,-0.211,-0.229,-0.819
-0.942,0.386,0.091,7.7,0.56,-14.84,-0.213,-0.228,-0.823
-0.918,0.364,0.096,6.09,1.82,-19.18,-0.207,-0.229,-0.821
-0.893,0.348,0.1,2.66,4.41,-24.85,-0.209,-0.235,-0.825
-0.872,0.339,0.096,-1.05,6.44,-29.54,-0.215,-0.237,-0.826
-0.869,0.329,0.085,-3.78,7.07,-32.83,-0.209,-0.246,-0.827
-0.882,0.318,0.08,-6.37,7.28,-34.02,-0.21,-0.247,-0.821
-0.901,0.312,0.061,-10.57,9.66,-32.83,-0.209,-0.254,-0.826
-0.95,0.309,0.024,-13.86,10.08,-31.29,-0.215,-0.252,-0.826
-0.996,0.327,0.012,-15.61,9.38,-28.7,-0.207,-0.255,-0.828
-1.009,0.353,0.008,-13.58,9.87,-23.94,-0.207,-0.258,-0.833
-0.993,0.377,0.006,-7.14,7.21,-19.53,-0.201,-0.26,-0.831
-0.978,0.383,0.009,2.03,1.96,-15.89,-0.206,-0.257,-0.83
-0.953,0.374,0.014,12.88,-3.5,-12.67,-0.204,-0.259,-0.829
-0.916,0.356,0.009,22.82,-7.21,-11.55,-0.201,-0.266,-0.831
-0.89,0.337,0.018,32.83,-12.81,-12.25,-0.202,-0.268,-0.83
-0.915,0.305,0.039,36.19,-15.75,-12.74,-0.198,-0.274,-0.827
-0.952,0.276,0.055,33.95,-17.01,-10.01,-0.196,-0.278,-0.831
-0.993,0.271,0.067,26.81,-16.73,-8.47,-0.194,-0.277,-0.827
-1.032,0.265,0.086,16.1,-14.84,-6.72,-0.19,-0.281,-0.823
-1.048,0.274,0.115,2.73,-12.88,-4.55,-0.2,-0.287,-0.824
-1.026,0.308,0.126,-9.52,-7.98,-3.57,-0.196,-0.285,-0.825
-0.992,0.336,0.119,-18.13,-6.09,-3.57,-0.188,-0.285,-0.823
-0.969,0.347,0.111,-19.81,-3.64,-1.05,-0.191,-0.287,-0.82
-0.939,0.371,0.099,-19.46,0.0,0.14,-0.191,-0.284,-0.817
-0.913,0.396,0.079,-14.42,3.78,-0.35,-0.187,-0.284,-0.821
-0.893,0.394,0.059,-7.21,4.48,1.68,-0.191,-0.282,-0.823
-0.89,0.401,0.054,-0.7,4.13,4.76,-0.187,-0.281,-0.825
-0.881,0.391,0.035,4.48,3.5,4.76,-0.188,-0.281,-0.825
-0.893,0.388,0.017,8.19,-0.28,5.25,-0.193,-0.276,-0.827
-0.905,0.373,0.012,9.73,-2.24,4.97,-0.191,-0.275,-0.83
-0.912,0.389,0.008,7.98,-3.01,4.27,-0.191,-0.274,-0.826
-0.918,0.398,-0.004,9.03,-4.13,2.59,-0.193,-0.278,-0.823
-0.936,0.399,-0.015,12.04,-4.97,2.38,-0.19,-0.282,-0.823
-0.944,0.39,-0.01,14.84,-4.62,2.24,-0.192,-0.284,-0.822
-0.931,0.385,-0.004,15.33,-3.78,1.19,-0.193,-0.279,-0.825
-0.922,0.39,0.0,13.72,-5.53,0.14,-0.191,-0.28,-0.825
-0.933,0.4,0.004,13.93,-7.07,-0.49,-0.191,-0.279,-0.823
-0.932,0.389,0.016,13.51,-6.3,-1.12,-0.189,-0.285,-0.827
-0.923,0.396,0.019,10.57,-6.79,-1.96,-0.191,-0.286,-0.825
-0.923,0.394,0.029,9.17,-5.88,-3.15,-0.19,-0.282,-0.825
-0.933,0.39,0.044,6.58,-4.97,-4.41,-0.191,-0.28,-0.824
-0.95,0.393,0.05,3.43,-4.76,-4.69,-0.19,-0.282,-0.825
-0.973,0.41,0.056,0.56,-5.81,-3.92,-0.192,-0.284,-0.823
-0.981,0.431,0.05,1.26,-3.5,-4.06,-0.188,-0.286,-0.818
-0.963,0.421,0.045,7.0,-1.54,-4.83,-0.189,-0.288,-0.818
-0.942,0.403,0.037,13.58,0.77,-5.39,-0.192,-0.286,-0.823
-0.906,0.358,0.026,17.29,1.82,-6.02,-0.188,-0.294,-0.823
-0.894,0.346,0.025,15.54,1.4,-6.44,-0.189,-0.294,-0.822
-0.901,0.322,0.025,12.6,1.12,-7.0,-0.187,-0.295,-0.827
-0.909,0.318,0.021,7.0,0.63,-5.95,-0.193,-0.298,-0.83
-0.911,0.319,0.007,2.59,2.17,-5.11,-0.188,-0.297,-0.829
-0.91,0.321,0.0,-1.05,2.73,-3.5,-0.193,-0.298,-0.824
-0.905,0.33,-0.004,-3.99,2.1,-0.63,-0.191,-0.299,-0.825
-0.9,0.341,-0.013,-6.58,0.63,2.24,-0.185,-0.294,-0.831
-0.916,0.357,-0.007,-7.63,-1.75,3.99,-0.185,-0.298,-0.824
-0.936,0.372,-0.005,-8.19,-3.29,5.32,-0.185,-0.297,-0.819
-0.954,0.385,-0.005,-7.77,-5.25,7.0,-0.187,-0.293,-0.825
-0.972,0.398,-0.005,-6.51,-6.3,8.12,-0.192,-0.292,-0.828
-0.979,0.396,0.003,-5.39,-6.23,7.91,-0.192,-0.291,-0.821
-0.973,0.402,0.006,-6.09,-5.39,7.28,-0.193,-0.294,-0.825
-0.965,0.409,0.005,-7.84,-3.99,4.69,-0.19,-0.293,-0.823
-0.953,0.421,0.017,-4.97,-0.28,-0.91,-0.192,-0.295,-0.822
-0.909,0.394,0.025,-5.95,0.21,-0.77,-0.191,-0.286,-0.817
-0.894,0.387,0.021,-5.25,0.84,-2.31,-0.191,-0.286,-0.824
-0.884,0.384,0.026,-4.48,0.77,-2.8,-0.189,-0.288,-0.82
-0.891,0.371,0.018,-4.62,0.42,-2.66,-0.188,-0.282,-0.82
-0.907,0.377,0.006,-5.25,0.42,-1.68,-0.189,-0.288,-0.823
-0.922,0.38,-0.003,-4.76,2.17,-0.14,-0.192,-0.28,-0.821
-0.93,0.381,-0.005,-3.78,2.38,3.5,-0.185,-0.285,-0.817
-0.941,0.385,-0.005,-3.78,0.07,5.11,-0.19,-0.285,-0.823
-0.95,0.403,-0.01,-3.85,-0.91,6.37,-0.189,-0.281,-0.827
-0.943,0.411,-0.009,-2.38,-1.47,6.93,-0.19,-0.282,-0.82
-0.938,0.418,-0.005,-0.7,-2.8,6.72,-0.186,-0.279,-0.82
-0.934,0.422,0.006,2.45,-3.57,5.81,-0.184,-0.279,-0.822
-0.93,0.427,0.006,4.9,-4.34,5.46,-0.187,-0.282,-0.822
-0.927,0.413,0.013,9.59,-3.01,3.64,-0.189,-0.28,-0.817
-0.924,0.395,0.016,8.47,-2.52,2.73,-0.191,-0.278,-0.82
-0.936,0.39,0.015,7.07,-1.05,0.98,-0.189,-0.284,-0.824
-0.94,0.388,0.009,5.81,1.05,0.35,-0.19,-0.282,-0.823
-0.939,0.387,0.005,6.23,2.87,0.07,-0.186,-0.283,-0.82
-0.937,0.379,0.002,7.07,3.15,0.07,-0.189,-0.284,-0.817
-0.941,0.373,0.019,7.63,2.94,0.91,-0.189,-0.287,-0.817
-0.938,0.344,0.019,4.48,2.52,0.77,-0.189,-0.28,-0.827
-0.944,0.287,0.029,-4.83,3.22,0.77,-0.191,-0.287,-0.82
-0.958,0.158,0.071,-40.74,6.58,-1.19,-0.186,-0.282,-0.824
-0.935,0.088,0.034,-108.85,11.2,-9.31,-0.194,-0.269,-0.813
-0.947,0.238,-0.047,-209.09,15.12,-20.65,-0.194,-0.268,-0.813
-0.963,0.379,-0.105,-235.83,24.71,-31.85,-0.194,-0.26,-0.804
-0.954,0.472,-0.131,-223.3,34.65,-32.97,-0.194,-0.25,-0.803
-0.924,0.518,-0.13,-190.12,37.17,-25.83,-0.194,-0.24,-0.8
-0.9,0.534,-0.114,-149.31,31.64,-19.39,-0.2,-0.235,-0.801
-0.906,0.509,-0.106,-86.73,21.28,-12.67,-0.198,-0.23,-0.801
-0.912,0.466,-0.103,-44.03,14.56,-8.12,-0.193,-0.227,-0.798
-0.906,0.452,-0.097,-11.55,8.19,-4.48,-0.204,-0.224,-0.802
-0.906,0.453,-0.095,17.57,0.35,-0.14,-0.203,-0.227,-0.798
-0.917,0.485,-0.114,52.78,-5.88,4.69,-0.197,-0.229,-0.804
