ax,ay,az,gx,gy,gz,mx,my,mz
-0.935,0.266,0.261,0.49,-2.59,-0.63,-0.174,-0.384,-0.992
-0.935,0.27,0.258,0.56,-2.59,-0.28,-0.175,-0.386,-1.0
-0.936,0.272,0.254,0.98,-2.45,-0.14,-0.174,-0.398,-0.992
-0.935,0.273,0.254,0.84,-2.73,0.07,-0.175,-0.392,-0.998
-0.939,0.278,0.253,0.56,-2.73,-0.21,-0.179,-0.395,-1.0
-0.941,0.281,0.255,0.7,-2.87,-0.56,-0.172,-0.397,-1.005
-0.942,0.281,0.256,1.12,-2.73,-0.49,-0.171,-0.394,-1.002
-0.939,0.275,0.255,1.33,-2.66,-0.63,-0.173,-0.391,-1.0
-0.933,0.271,0.253,0.84,-2.17,-0.7,-0.173,-0.393,-1.001
-0.93,0.27,0.254,0.35,-2.31,-0.7,-0.175,-0.392,-1.006
-0.934,0.271,0.249,-0.49,-2.52,-0.63,-0.169,-0.389,-1.0
-0.937,0.275,0.279,-0.07,-2.59,-0.56,-0.173,-0.391,-1.004
-0.941,0.278,0.255,0.28,-2.8,-0.63,-0.17,-0.392,-1.001
-0.942,0.275,0.249,0.0,-2.66,-0.77,-0.171,-0.391,-1.002
-0.943,0.272,0.245,-0.07,-2.66,-0.77,-0.174,-0.392,-0.995
-0.944,0.272,0.255,-0.28,-2.87,-0.7,-0.174,-0.394,-0.996
-0.938,0.27,0.256,-0.14,-2.8,-0.84,-0.171,-0.396,-0.995
-0.932,0.263,0.25,0.07,-2.8,-0.84,-0.174,-0.393,-0.989
-0.934,0.255,0.25,-0.49,-2.8,-0.35,-0.171,-0.391,-0.995
-0.934,0.265,0.255,-1.05,-2.73,0.0,-0.179,-0.394,-0.994
-0.941,0.272,0.254,-0.77,-2.94,0.49,-0.177,-0.394,-0.996
-0.948,0.272,0.255,-0.56,-3.08,0.56,-0.175,-0.395,-0.999
-0.947,0.273,0.251,-1.12,-2.66,0.42,-0.169,-0.393,-0.994
-0.944,0.279,0.25,-1.96,-2.31,0.0,-0.171,-0.392,-0.997
-0.939,0.283,0.251,-1.19,-2.45,-0.14,-0.169,-0.392,-0.997
-0.933,0.273,0.248,-0.14,-2.73,0.07,-0.169,-0.392,-0.999
-0.937,0.271,0.251,0.0,-3.29,0.28,-0.172,-0.391,-0.994
-0.939,0.273,0.255,-0.49,-3.57,0.42,-0.175,-0.393,-0.999
-0.938,0.276,0.256,-0.35,-3.29,0.42,-0.176,-0.388,-1.005
-0.938,0.275,0.257,-0.07,-3.22,0.35,-0.174,-0.39,-0.999
-0.941,0.273,0.26,-0.07,-3.22,0.35,-0.17,-0.396,-1.0
-0.94,0.273,0.26,0.07,-2.8,0.42,-0.17,-0.389,-0.999
-0.941,0.274,0.26,0.21,-3.01,0.63,-0.174,-0.394,-0.992
-0.941,0.277,0.259,0.14,-2.94,0.63,-0.175,-0.395,-0.991
-0.939,0.279,0.259,0.28,-2.87,0.49,-0.173,-0.392,-0.996
-0.94,0.281,0.26,0.56,-2.94,0.42,-0.172,-0.396,-1.002
-0.942,0.277,0.262,1.05,-2.87,0.21,-0.174,-0.394,-0.998
-0.939,0.274,0.256,1.26,-2.73,0.14,-0.177,-0.392,-1.001
-0.934,0.27,0.256,1.54,-2.87,0.07,-0.173,-0.389,-0.996
-0.932,0.269,0.259,1.54,-2.73,0.21,-0.176,-0.392,-1.0
-0.935,0.269,0.259,1.33,-2.8,0.35,-0.174,-0.386,-1.002
-0.94,0.275,0.253,1.26,-2.8,0.35,-0.174,-0.385,-1.001
-0.946,0.28,0.26,2.03,-2.94,0.63,-0.167,-0.388,-0.997
-0.947,0.277,0.26,2.24,-2.8,0.42,-0.171,-0.387,-0.998
-0.938,0.272,0.252,1.89,-2.45,0.14,-0.17,-0.393,-0.994
-0.94,0.272,0.249,1.05,-2.59,-0.14,-0.17,-0.386,-0.998
-0.943,0.276,0.258,1.54,-2.59,-0.35,-0.172,-0.386,-0.992
-0.926,0.267,0.251,2.24,-2.38,-0.56,-0.17,-0.393,-1.001
-0.933,0.262,0.25,2.03,-2.8,-0.28,-0.172,-0.389,-0.994
-0.941,0.265,0.254,1.68,-2.73,0.21,-0.168,-0.389,-1.001
-0.933,0.283,0.244,1.26,-1.96,0.84,-0.171,-0.386,-1.002
-0.925,0.311,0.254,2.38,-3.22,1.61,-0.17,-0.385,-0.998
-0.926,0.356,0.277,7.91,-6.02,2.1,-0.17,-0.385,-0.997
-0.94,0.335,0.287,11.48,-7.63,1.82,-0.172,-0.389,-0.999
-0.938,0.36,0.306,11.62,-7.63,3.29,-0.173,-0.388,-1.005
-0.905,0.372,0.374,9.66,-7.77,3.01,-0.172,-0.387,-1.0
-0.872,0.363,0.55,8.75,-7.84,6.51,-0.171,-0.382,-0.999
-0.866,0.383,0.791,7.77,-2.8,7.14,-0.174,-0.386,-1.003
-0.852,0.385,0.916,-1.82,19.04,0.21,-0.172,-0.384,-1.006
-0.868,0.495,0.871,4.97,26.04,-1.12,-0.174,-0.388,-1.009
-0.995,0.555,0.94,28.42,18.83,-3.71,-0.177,-0.384,-1.012
-1.085,0.545,0.988,65.03,22.33,-2.87,-0.176,-0.388,-1.017
-1.144,0.39,0.975,95.55,32.41,-0.7,-0.172,-0.388,-1.039
-1.197,0.234,0.952,102.41,45.08,3.71,-0.172,-0.385,-1.051
-1.212,0.177,0.854,86.03,65.169,7.77,-0.164,-0.382,-1.056
-1.181,0.227,0.706,59.08,87.57,7.91,-0.167,-0.383,-1.077
-1.169,0.291,0.589,36.12,100.52,4.41,-0.166,-0.379,-1.084
-1.191,0.315,0.476,10.92,111.09,-5.25,-0.167,-0.379,-1.102
-1.16,0.31,0.429,-4.97,122.71,-14.21,-0.155,-0.375,-1.113
-1.097,0.351,0.379,-16.87,134.05,-27.44,-0.152,-0.378,-1.122
-1.005,0.343,0.328,-21.42,145.6,-42.49,-0.143,-0.386,-1.142
-0.943,0.287,0.183,-24.08,151.62,-53.83,-0.133,-0.395,-1.15
-0.971,0.228,0.101,-31.78,147.98,-61.74,-0.109,-0.407,-1.165
-1.043,0.147,0.194,-42.77,147.84,-64.4,-0.103,-0.414,-1.167
-1.011,0.13,0.181,-64.75,156.38,-64.12,-0.089,-0.42,-1.173
-0.849,0.082,0.27,-74.97,155.54,-63.0,-0.064,-0.437,-1.186
-0.834,0.114,0.239,-77.21,151.48,-57.75,-0.051,-0.442,-1.187
-0.833,0.219,0.15,-80.15,145.81,-52.36,-0.026,-0.456,-1.194
-0.816,0.282,0.137,-70.84,133.77,-45.43,-0.021,-0.462,-1.195
-0.794,0.303,0.198,-47.11,118.86,-33.25,-0.009,-0.47,-1.195
-0.775,0.263,0.42,-21.28,103.18,-21.28,0.004,-0.473,-1.197
-0.747,0.301,0.603,-10.5,88.899,-14.7,0.014,-0.476,-1.198
-0.726,0.395,0.717,-10.01,75.95,-18.34,0.014,-0.482,-1.203
-0.679,0.378,0.819,15.12,66.5,-18.13,0.022,-0.483,-1.207
-0.502,0.281,0.74,45.64,74.55,-12.25,0.03,-0.478,-1.211
-0.331,0.172,0.664,68.32,73.36,-7.56,0.038,-0.471,-1.224
-0.227,0.155,0.649,74.409,65.94,-0.14,0.041,-0.472,-1.23
-0.227,0.16,0.711,67.62,56.139,7.28,0.049,-0.461,-1.234
-0.287,0.17,0.79,61.53,48.72,18.34,0.058,-0.457,-1.247
-0.287,0.192,0.803,57.26,51.45,29.96,0.057,-0.449,-1.254
-0.205,0.181,0.747,48.649,56.77,38.85,0.061,-0.441,-1.261
-0.101,0.191,0.655,33.39,51.94,44.17,0.057,-0.44,-1.27
-0.108,0.221,0.633,23.73,44.59,49.07,0.065,-0.437,-1.269
-0.145,0.297,0.671,11.06,36.4,52.29,0.062,-0.433,-1.274
-0.17,0.381,0.689,-1.05,32.34,49.77,0.058,-0.429,-1.273
-0.159,0.397,0.685,-5.6,28.56,43.89,0.058,-0.432,-1.267
-0.142,0.331,0.712,-3.85,22.68,40.88,0.055,-0.431,-1.278
-0.153,0.271,0.754,-10.22,12.95,39.06,0.055,-0.432,-1.269
-0.177,0.288,0.755,-22.19,9.52,37.73,0.052,-0.428,-1.273
-0.16,0.312,0.719,-32.97,5.39,37.87,0.055,-0.425,-1.27
-0.165,0.317,0.679,-41.93,-2.87,38.78,0.047,-0.428,-1.264
-0.213,0.302,0.726,-47.53,-12.88,39.9,0.045,-0.435,-1.264
-0.251,0.402,0.774,-32.06,-15.75,45.29,0.041,-0.431,-1.253
-0.233,0.402,0.787,-10.57,-20.93,48.649,0.029,-0.435,-1.252
-0.206,0.284,0.797,10.78,-27.3,52.149,0.028,-0.433,-1.256
-0.216,0.189,0.781,9.94,-37.31,58.659,0.017,-0.426,-1.255
-0.312,0.14,0.776,-6.16,-45.36,61.669,0.009,-0.42,-1.251
-0.379,0.218,0.81,-19.32,-53.2,65.45,0.003,-0.424,-1.245
-0.431,0.259,0.923,-25.06,-58.31,67.899,-0.017,-0.42,-1.238
-0.448,0.253,0.98,-17.15,-59.92,72.24,-0.023,-0.42,-1.233
-0.428,0.22,0.928,-2.1,-60.27,78.12,-0.037,-0.415,-1.232
-0.398,0.136,0.853,16.73,-64.47,86.24,-0.051,-0.412,-1.227
-0.415,0.059,0.817,32.48,-75.67,104.72,-0.06,-0.402,-1.222
-0.46,-0.006,0.852,43.89,-73.71,115.29,-0.077,-0.388,-1.218
-0.468,-0.103,0.842,44.1,-69.44,126.14,-0.087,-0.375,-1.216
-0.486,-0.155,0.787,32.34,-64.82,135.52,-0.096,-0.328,-1.212
-0.519,-0.1,0.656,10.36,-59.92,139.58,-0.12,-0.344,-1.207
-0.531,-0.006,0.456,-20.58,-58.03,141.26,-0.132,-0.335,-1.207
-0.569,0.102,0.345,-50.75,-60.55,145.53,-0.155,-0.317,-1.197
-0.716,0.281,0.308,-58.59,-64.12,152.53,-0.164,-0.307,-1.184
-0.917,0.397,0.246,-52.01,-74.76,162.12,-0.177,-0.289,-1.17
-1.131,0.406,0.2,-62.23,-87.15,162.47,-0.191,-0.276,-1.162
-1.098,0.406,0.187,-93.31,-101.64,153.09,-0.198,-0.267,-1.146
-1.052,0.528,0.137,-130.69,-110.46,137.13,-0.215,-0.255,-1.124
-1.015,0.723,0.107,-149.52,-114.8,116.13,-0.222,-0.243,-1.111
-0.923,0.839,0.276,-123.83,-120.96,91.98,-0.234,-0.235,-1.085
-0.85,0.759,0.49,-69.3,-126.21,57.26,-0.242,-0.226,-1.066
-0.898,0.626,0.575,-3.01,-128.87,30.24,-0.246,-0.227,-1.057
-1.043,0.514,0.591,20.79,-129.99,0.35,-0.248,-0.225,-1.034
-1.12,0.388,0.712,30.31,-122.78,-25.2,-0.251,-0.228,-1.03
-1.103,0.229,0.743,32.55,-101.64,-43.47,-0.247,-0.23,-1.009
-1.102,0.033,0.751,34.86,-77.28,-49.91,-0.246,-0.233,-1.0
-1.125,-0.052,0.785,24.57,-57.33,-47.25,-0.243,-0.239,-1.002
-1.072,-0.001,0.785,9.1,-43.82,-46.34,-0.247,-0.247,-0.992
-1.048,0.0,0.812,5.95,-39.83,-44.87,-0.242,-0.253,-0.99
-1.034,-0.052,0.806,4.41,-41.02,-42.14,-0.242,-0.26,-0.987
-0.97,-0.026,0.746,-22.4,-40.95,-40.18,-0.237,-0.26,-0.978
-1.002,0.131,0.687,-30.31,-39.97,-37.03,-0.239,-0.266,-0.979
-1.096,0.239,0.686,-20.72,-35.28,-32.69,-0.234,-0.268,-0.964
-1.179,0.186,0.702,4.62,-28.35,-26.53,-0.236,-0.272,-0.962
-1.229,0.005,0.702,20.37,-18.34,-21.21,-0.231,-0.275,-0.967
-1.263,-0.077,0.656,8.12,-6.37,-21.28,-0.231,-0.28,-0.961
-1.307,-0.002,0.633,-16.52,6.58,-24.92,-0.228,-0.282,-0.965
-1.263,0.052,0.644,-19.88,12.6,-24.99,-0.232,-0.285,-0.966
-1.219,0.053,0.634,-21.63,16.45,-25.55,-0.227,-0.285,-0.967
-1.159,0.081,0.571,-25.2,21.07,-26.25,-0.225,-0.292,-0.98
-1.085,0.122,0.459,-29.82,26.67,-23.66,-0.223,-0.297,-0.978
-0.961,0.151,0.388,-32.9,32.2,-18.34,-0.224,-0.298,-0.976
-0.822,0.159,0.254,-30.45,35.0,-7.84,-0.225,-0.297,-0.976
-0.833,0.214,0.22,-26.32,29.47,-0.77,-0.226,-0.299,-0.981
-1.02,0.269,0.298,-20.3,18.2,6.65,-0.223,-0.296,-0.979
-1.157,0.299,0.396,-11.76,6.23,12.25,-0.223,-0.296,-0.982
-1.175,0.305,0.471,-1.96,-5.95,15.96,-0.226,-0.294,-0.979
-1.109,0.286,0.534,9.52,-14.49,16.94,-0.224,-0.299,-0.977
-1.057,0.266,0.564,19.25,-17.22,14.91,-0.226,-0.294,-0.975
-0.971,0.236,0.542,31.57,-9.31,8.05,-0.228,-0.289,-0.977
-0.857,0.155,0.501,40.95,-0.77,2.8,-0.231,-0.288,-0.978
-0.873,0.131,0.472,49.35,4.06,-1.12,-0.229,-0.289,-0.99
-0.91,0.125,0.457,58.659,5.81,-4.2,-0.227,-0.292,-0.989
-0.927,0.111,0.435,67.409,6.93,-4.9,-0.227,-0.294,-0.987
-0.926,0.074,0.416,71.679,9.1,-5.04,-0.228,-0.291,-0.995
-0.912,0.087,0.221,52.85,13.58,-11.76,-0.226,-0.293,-1.002
-0.947,0.154,0.097,34.16,6.37,-17.01,-0.224,-0.296,-1.004
-1.041,0.19,0.138,24.57,-5.67,-18.06,-0.225,-0.297,-1.009
-1.129,0.215,0.194,25.06,-9.03,-13.51,-0.219,-0.3,-1.011
-1.083,0.216,0.209,28.0,-5.11,-9.17,-0.221,-0.299,-1.008
-0.95,0.183,0.141,28.84,-4.06,-7.84,-0.214,-0.302,-1.016
-0.907,0.147,0.08,25.41,-14.56,-6.09,-0.219,-0.298,-1.017
-0.97,0.119,0.157,18.06,-28.07,-2.38,-0.219,-0.3,-1.008
-1.039,0.056,0.428,9.03,-36.68,12.81,-0.221,-0.298,-1.005
-1.005,0.057,0.377,-6.23,-36.96,22.89,-0.226,-0.294,-1.0
-0.942,0.095,0.3,-29.89,-38.29,31.01,-0.224,-0.293,-0.996
-0.906,0.149,0.214,-52.99,-39.2,37.24,-0.23,-0.281,-0.989
-0.929,0.232,0.174,-66.5,-46.9,44.45,-0.232,-0.28,-0.984
-1.045,0.279,0.293,-62.86,-59.64,51.8,-0.233,-0.275,-0.974
-1.152,0.318,0.394,-48.37,-68.6,56.629,-0.238,-0.266,-0.962
-1.139,0.351,0.438,-32.9,-69.86,55.44,-0.239,-0.259,-0.953
-1.096,0.457,0.448,-3.99,-76.65,49.98,-0.243,-0.251,-0.941
-1.076,0.528,0.413,19.46,-78.47,41.3,-0.241,-0.249,-0.932
-1.057,0.539,0.485,49.0,-77.56,28.7,-0.24,-0.242,-0.933
-1.063,0.459,0.648,83.3,-71.05,18.06,-0.24,-0.243,-0.924
-1.025,0.301,0.608,103.67,-51.38,4.06,-0.24,-0.245,-0.915
-0.914,0.142,0.444,93.1,-28.21,-8.82,-0.236,-0.247,-0.917
-0.793,0.063,0.338,47.32,-8.89,-24.85,-0.235,-0.25,-0.918
-0.724,0.096,0.34,19.88,-5.53,-32.41,-0.235,-0.255,-0.917
-0.771,0.132,0.471,6.72,-4.76,-38.29,-0.233,-0.261,-0.921
-0.794,0.117,0.559,2.1,4.41,-44.87,-0.232,-0.268,-0.927
-0.769,0.068,0.561,-2.73,19.18,-50.96,-0.225,-0.276,-0.922
-0.705,0.065,0.516,-11.62,32.34,-54.6,-0.23,-0.283,-0.926
-0.629,0.106,0.442,-19.67,42.56,-58.45,-0.226,-0.293,-0.928
-0.59,0.142,0.37,-19.11,43.12,-62.37,-0.224,-0.3,-0.935
-0.64,0.18,0.306,-13.3,37.03,-63.07,-0.222,-0.302,-0.937
-0.695,0.171,0.272,-6.37,32.69,-63.21,-0.213,-0.312,-0.942
-0.773,0.131,0.372,3.22,26.88,-58.03,-0.217,-0.317,-0.947
-0.913,0.08,0.45,12.04,23.38,-46.13,-0.207,-0.331,-0.955
-1.037,0.072,0.383,2.38,26.25,-34.02,-0.212,-0.334,-0.954
-1.041,0.169,0.254,-30.1,39.2,-28.49,-0.207,-0.34,-0.958
-0.95,0.255,0.175,-46.13,43.05,-20.16,-0.203,-0.34,-0.96
-0.882,0.325,0.15,-49.07,35.07,-14.63,-0.206,-0.343,-0.962
-0.886,0.341,0.183,-41.79,23.45,-15.89,-0.204,-0.338,-0.966
-0.916,0.317,0.221,-27.79,15.75,-17.92,-0.2,-0.344,-0.958
-0.922,0.309,0.228,-13.37,11.69,-16.8,-0.202,-0.343,-0.969
-0.922,0.322,0.23,3.43,2.73,-16.17,-0.203,-0.347,-0.967
-0.94,0.329,0.24,13.37,-1.33,-17.36,-0.202,-0.346,-0.973
-0.949,0.273,0.259,19.32,-2.45,-17.29,-0.2,-0.351,-0.977
-0.944,0.232,0.231,18.97,-0.84,-16.8,-0.197,-0.357,-0.976
-0.925,0.206,0.184,10.85,1.12,-17.01,-0.195,-0.358,-0.971
-0.91,0.208,0.17,1.19,0.14,-15.05,-0.195,-0.363,-0.977
-0.91,0.226,0.22,-3.99,-3.15,-11.48,-0.201,-0.36,-0.974
-0.91,0.237,0.272,-6.09,-5.95,-6.86,-0.194,-0.361,-0.978
-0.879,0.247,0.289,-6.51,-7.28,-5.32,-0.196,-0.361,-0.973
-0.868,0.266,0.29,-4.83,-10.99,-3.36,-0.197,-0.362,-0.971
-0.872,0.289,0.308,0.84,-15.75,0.56,-0.196,-0.357,-0.965
-0.875,0.296,0.327,10.01,-18.83,3.99,-0.199,-0.357,-0.961
-0.872,0.289,0.329,19.11,-21.28,6.09,-0.196,-0.36,-0.965
-0.882,0.277,0.317,26.18,-23.52,7.28,-0.196,-0.362,-0.971
-0.907,0.271,0.307,31.08,-27.3,9.38,-0.201,-0.358,-0.968
-0.927,0.279,0.302,32.13,-27.09,9.87,-0.196,-0.359,-0.966
-0.927,0.292,0.291,33.53,-28.07,9.38,-0.194,-0.359,-0.966
-0.924,0.31,0.278,36.75,-29.54,7.63,-0.197,-0.352,-0.958
-0.911,0.326,0.262,42.21,-30.94,4.9,-0.195,-0.353,-0.959
-0.901,0.336,0.249,49.98,-34.23,2.1,-0.193,-0.35,-0.956
-0.902,0.335,0.238,59.57,-38.57,-1.05,-0.196,-0.358,-0.963
-0.924,0.312,0.254,74.06,-45.01,-4.27,-0.198,-0.356,-0.957
-0.937,0.286,0.261,80.57,-47.18,-4.83,-0.194,-0.359,-0.956
-0.933,0.26,0.256,82.81,-47.11,-4.97,-0.194,-0.357,-0.96
-0.922,0.237,0.247,80.99,-46.83,-5.39,-0.196,-0.361,-0.961
-0.905,0.219,0.242,75.879,-46.27,-5.67,-0.195,-0.36,-0.963
-0.89,0.209,0.241,68.879,-45.08,-5.81,-0.192,-0.363,-0.963
-0.886,0.209,0.25,61.6,-45.15,-6.02,-0.193,-0.363,-0.96
-0.908,0.214,0.274,52.29,-45.29,-5.53,-0.191,-0.366,-0.961
-0.966,0.223,0.306,46.97,-43.68,-4.69,-0.189,-0.368,-0.961
-1.004,0.229,0.324,42.56,-40.53,-3.08,-0.191,-0.37,-0.959
-1.048,0.229,0.33,37.17,-36.12,-1.33,-0.19,-0.367,-0.958
-1.093,0.229,0.338,30.52,-30.66,0.0,-0.188,-0.365,-0.958
-1.105,0.235,0.34,21.42,-21.35,-0.28,-0.189,-0.366,-0.957
-1.057,0.24,0.324,10.92,-9.52,-3.29,-0.187,-0.37,-0.961
-0.984,0.242,0.284,-0.42,2.17,-9.59,-0.188,-0.367,-0.96
-0.934,0.248,0.276,-2.59,3.85,-14.7,-0.19,-0.373,-0.958
-0.952,0.248,0.274,-2.52,4.9,-20.02,-0.187,-0.374,-0.968
-0.979,0.241,0.274,-2.1,7.77,-23.24,-0.183,-0.375,-0.959
-0.996,0.226,0.272,-1.75,11.41,-23.1,-0.189,-0.378,-0.962
-1.005,0.213,0.27,-3.08,14.07,-21.07,-0.183,-0.379,-0.966
-1.006,0.207,0.265,-6.37,18.27,-16.31,-0.178,-0.386,-0.971
-0.971,0.219,0.249,-14.0,20.58,-13.09,-0.18,-0.385,-0.971
-0.934,0.237,0.238,-17.57,20.93,-10.5,-0.181,-0.39,-0.968
-0.904,0.255,0.232,-17.99,18.69,-7.84,-0.178,-0.388,-0.968
-0.886,0.274,0.231,-15.61,15.54,-5.39,-0.179,-0.383,-0.973
-0.875,0.291,0.226,-10.43,11.9,-3.99,-0.182,-0.386,-0.966
-0.876,0.302,0.227,-3.99,8.82,-0.7,-0.179,-0.387,-0.971
-0.889,0.305,0.229,3.22,5.95,5.04,-0.179,-0.389,-0.967
-0.911,0.294,0.226,12.53,2.8,8.54,-0.183,-0.389,-0.968
-0.92,0.284,0.225,13.93,1.82,11.69,-0.178,-0.385,-0.97
-0.923,0.284,0.224,12.11,1.82,13.23,-0.179,-0.387,-0.972
-0.93,0.29,0.22,8.82,1.89,13.58,-0.185,-0.382,-0.969
-0.94,0.298,0.216,4.83,1.82,12.88,-0.187,-0.382,-0.973
-0.944,0.306,0.218,1.05,2.38,11.62,-0.185,-0.378,-0.971
-0.942,0.318,0.217,-1.4,3.15,9.66,-0.184,-0.38,-0.973
-0.939,0.33,0.214,-3.01,3.29,6.51,-0.186,-0.377,-0.975
-0.934,0.339,0.215,-3.29,2.38,4.13,-0.187,-0.379,-0.975
-0.933,0.341,0.217,-2.38,1.26,1.89,-0.182,-0.38,-0.977
-0.927,0.342,0.22,-1.19,0.07,0.0,-0.185,-0.377,-0.976
-0.918,0.341,0.22,0.77,-1.26,-1.96,-0.182,-0.375,-0.976
-0.915,0.338,0.222,3.36,-2.73,-3.15,-0.18,-0.376,-0.977
-0.916,0.332,0.229,5.88,-4.62,-3.92,-0.181,-0.379,-0.983
-0.918,0.324,0.236,8.05,-6.65,-4.13,-0.19,-0.378,-0.979
-0.922,0.31,0.249,10.08,-7.63,-4.27,-0.18,-0.383,-0.982
-0.923,0.302,0.253,9.94,-8.12,-4.34,-0.181,-0.38,-0.984
-0.921,0.294,0.254,9.17,-8.26,-4.55,-0.18,-0.381,-0.979
-0.918,0.293,0.255,8.4,-8.33,-4.76,-0.182,-0.374,-0.977
-0.918,0.293,0.262,8.19,-9.03,-4.9,-0.182,-0.377,-0.977
-0.93,0.292,0.274,8.61,-9.59,-4.97,-0.186,-0.379,-0.981
-0.937,0.285,0.284,8.61,-9.1,-4.97,-0.181,-0.382,-0.982
-0.932,0.276,0.284,7.91,-7.63,-4.97,-0.181,-0.383,-0.981
-0.928,0.271,0.285,5.81,-6.65,-5.04,-0.183,-0.382,-0.984
-0.932,0.267,0.287,3.92,-6.58,-5.25,-0.178,-0.385,-0.983
-0.931,0.262,0.288,2.17,-5.53,-5.25,-0.182,-0.389,-0.982
-0.926,0.262,0.285,0.56,-4.69,-5.04,-0.181,-0.386,-0.974
-0.925,0.266,0.288,-0.77,-4.41,-4.76,-0.18,-0.384,-0.981
-0.926,0.27,0.289,-0.91,-3.78,-3.99,-0.178,-0.384,-0.973
-0.926,0.271,0.284,-0.98,-3.57,-2.38,-0.178,-0.389,-0.977
-0.935,0.272,0.286,-1.05,-3.78,-1.33,-0.175,-0.386,-0.975
-0.939,0.274,0.29,-1.19,-3.57,-0.63,-0.183,-0.388,-0.974
-0.934,0.278,0.285,-1.61,-2.8,-0.28,-0.177,-0.389,-0.976
-0.926,0.282,0.276,-1.68,-2.66,-0.42,-0.18,-0.389,-0.978
-0.926,0.286,0.275,-1.12,-2.87,-0.42,-0.18,-0.39,-0.973
-0.925,0.286,0.276,0.07,-2.1,-0.35,-0.181,-0.387,-0.979
-0.93,0.281,0.279,0.63,-2.59,0.42,-0.183,-0.388,-0.973
-0.938,0.279,0.276,-0.14,-2.03,0.84,-0.179,-0.388,-0.972
-0.936,0.287,0.267,-1.47,-1.05,1.12,-0.181,-0.389,-0.975
-0.932,0.296,0.262,-1.96,-0.98,1.33,-0.178,-0.389,-0.975
-0.937,0.303,0.264,-1.68,-1.47,1.26,-0.181,-0.388,-0.97
-0.939,0.307,0.264,-0.98,-1.54,1.05,-0.178,-0.388,-0.979
-0.937,0.306,0.26,-0.07,-1.68,0.7,-0.178,-0.385,-0.979
-0.938,0.303,0.262,0.7,-2.17,0.91,-0.183,-0.385,-0.976
-0.932,0.303,0.263,0.77,-2.03,0.28,-0.18,-0.388,-0.977
-0.925,0.304,0.259,1.26,-1.82,-0.28,-0.178,-0.387,-0.977
-0.926,0.304,0.26,2.03,-2.59,-0.56,-0.183,-0.387,-0.979
-0.932,0.3,0.267,2.24,-2.66,-0.56,-0.178,-0.386,-0.977
-0.927,0.3,0.267,2.17,-1.96,-0.49,-0.172,-0.387,-0.973
-0.926,0.3,0.267,1.96,-2.24,-0.84,-0.175,-0.386,-0.977
-0.932,0.298,0.268,2.03,-2.24,-0.98,-0.178,-0.39,-0.974
-0.939,0.296,0.27,1.47,-2.17,-1.4,-0.178,-0.383,-0.982
-0.941,0.296,0.27,0.91,-1.47,-2.03,-0.174,-0.385,-0.974
-0.936,0.294,0.267,0.35,-0.63,-2.59,-0.175,-0.386,-0.974
-0.928,0.293,0.265,0.21,-0.63,-3.15,-0.177,-0.39,-0.974
-0.925,0.29,0.261,0.7,-0.63,-3.36,-0.174,-0.386,-0.973
-0.922,0.282,0.263,1.26,-0.84,-3.01,-0.175,-0.388,-0.973
-0.92,0.279,0.266,1.33,-1.26,-2.66,-0.178,-0.385,-0.977
-0.923,0.281,0.265,0.91,-1.4,-2.1,-0.178,-0.389,-0.974
-0.932,0.281,0.259,0.7,-1.47,-1.68,-0.178,-0.386,-0.978
-0.933,0.285,0.262,0.7,-1.96,-0.91,-0.175,-0.39,-0.974
-0.925,0.286,0.267,0.91,-1.47,-0.49,-0.177,-0.389,-0.973
-0.918,0.286,0.258,1.33,-2.17,-1.05,-0.178,-0.395,-0.97
-0.926,0.282,0.261,1.4,-2.59,-1.19,-0.182,-0.389,-0.972
-0.926,0.286,0.266,1.68,-2.87,-0.77,-0.182,-0.39,-0.972
-0.922,0.287,0.266,2.45,-2.66,0.14,-0.181,-0.389,-0.974
-0.926,0.284,0.269,3.15,-3.22,0.42,-0.176,-0.388,-0.979
-0.929,0.285,0.269,2.8,-3.29,0.7,-0.177,-0.39,-0.977
-0.928,0.289,0.264,2.03,-3.22,1.05,-0.177,-0.388,-0.973
-0.926,0.298,0.269,2.52,-3.43,1.05,-0.178,-0.391,-0.975
-0.926,0.3,0.273,3.15,-3.85,0.98,-0.176,-0.384,-0.975
-0.923,0.3,0.273,4.13,-4.13,1.12,-0.178,-0.387,-0.972
-0.923,0.299,0.273,4.27,-4.34,0.98,-0.177,-0.385,-0.972
-0.925,0.299,0.276,4.34,-4.48,0.84,-0.178,-0.385,-0.977
-0.922,0.297,0.277,3.71,-3.78,0.21,-0.178,-0.386,-0.972
-0.922,0.295,0.276,2.8,-3.71,-0.56,-0.173,-0.389,-0.973
-0.924,0.295,0.275,1.68,-3.43,-1.05,-0.172,-0.387,-0.969
-0.926,0.295,0.277,0.98,-3.43,-1.33,-0.178,-0.388,-0.98
-0.926,0.296,0.276,0.49,-3.01,-1.4,-0.176,-0.389,-0.981
-0.927,0.297,0.275,0.07,-2.73,-1.61,-0.177,-0.391,-0.976
-0.927,0.297,0.275,-0.14,-2.59,-1.75,-0.174,-0.392,-0.976
-0.927,0.297,0.275,-0.49,-2.24,-2.38,-0.178,-0.39,-0.975
-0.926,0.293,0.273,-0.77,-2.24,-2.52,-0.176,-0.389,-0.978
-0.926,0.291,0.272,-0.77,-2.24,-2.66,-0.174,-0.389,-0.977
-0.926,0.29,0.271,-0.84,-2.38,-2.59,-0.174,-0.389,-0.979
-0.923,0.29,0.268,-0.91,-1.89,-2.17,-0.172,-0.388,-0.977
-0.926,0.288,0.268,-0.56,-2.45,-2.03,-0.176,-0.39,-0.973
-0.931,0.287,0.275,-0.49,-2.38,-1.26,-0.177,-0.389,-0.978
-0.928,0.287,0.269,-1.54,-1.89,-1.19,-0.174,-0.391,-0.977
