ax,ay,az,gx,gy,gz,mx,my,mz
-0.959,0.257,0.127,8.75,-3.64,1.89,-0.194,-0.34,-0.88
-0.959,0.249,0.125,9.38,-4.41,3.64,-0.193,-0.339,-0.88
-0.973,0.249,0.124,5.67,-5.04,6.02,-0.192,-0.336,-0.881
-0.973,0.262,0.118,3.36,-4.27,7.56,-0.195,-0.333,-0.884
-0.973,0.275,0.115,1.68,-3.57,8.96,-0.191,-0.336,-0.883
-0.969,0.281,0.114,1.47,-3.15,9.87,-0.195,-0.333,-0.882
-0.962,0.284,0.112,1.54,-2.94,10.15,-0.194,-0.332,-0.876
-0.956,0.291,0.114,0.7,-2.87,9.24,-0.198,-0.332,-0.881
-0.956,0.299,0.114,0.49,-2.52,7.14,-0.2,-0.333,-0.882
-0.962,0.302,0.115,0.63,-2.73,3.5,-0.196,-0.329,-0.879
-0.97,0.31,0.091,2.94,-3.01,1.19,-0.202,-0.329,-0.88
-0.968,0.312,0.078,5.81,-3.99,0.14,-0.199,-0.329,-0.883
-0.968,0.313,0.087,9.87,-5.32,-0.21,-0.199,-0.33,-0.883
-0.965,0.291,0.102,13.86,-5.46,0.21,-0.197,-0.325,-0.886
-0.96,0.268,0.12,14.0,-4.76,0.35,-0.197,-0.326,-0.884
-0.961,0.255,0.12,10.5,-4.41,-1.05,-0.198,-0.326,-0.889
-0.98,0.256,0.101,4.48,-3.71,-3.71,-0.193,-0.334,-0.887
-0.997,0.262,0.1,-17.64,0.98,-3.57,-0.198,-0.332,-0.884
-0.982,0.273,0.105,-0.84,4.13,-2.87,-0.197,-0.335,-0.882
-0.938,0.28,0.11,2.03,2.73,-1.61,-0.2,-0.333,-0.884
-0.943,0.268,0.116,5.95,-1.61,0.14,-0.198,-0.333,-0.879
-0.959,0.252,0.116,7.14,-3.57,1.89,-0.194,-0.329,-0.885
-0.967,0.246,0.113,5.04,-2.59,3.01,-0.194,-0.332,-0.889
-0.959,0.256,0.11,1.75,-0.07,3.78,-0.196,-0.33,-0.893
-0.951,0.271,0.11,0.28,1.12,3.85,-0.197,-0.33,-0.888
-0.952,0.28,0.111,0.56,1.12,4.69,-0.198,-0.325,-0.89
-0.959,0.281,0.11,1.33,0.0,4.55,-0.197,-0.325,-0.884
-0.967,0.279,0.106,1.96,-0.21,3.99,-0.201,-0.324,-0.883
-0.968,0.287,0.117,1.26,1.26,2.73,-0.198,-0.325,-0.885
-0.961,0.288,0.12,0.91,1.54,0.42,-0.197,-0.327,-0.884
-0.963,0.287,0.112,0.84,2.03,-1.82,-0.199,-0.326,-0.885
-0.957,0.279,0.096,1.47,1.33,-3.43,-0.203,-0.328,-0.886
-0.96,0.28,0.093,2.03,0.07,-2.94,-0.199,-0.326,-0.891
-0.961,0.278,0.092,1.96,-1.4,-3.15,-0.197,-0.326,-0.885
-0.957,0.274,0.086,0.98,-1.54,-3.29,-0.196,-0.326,-0.885
-0.958,0.275,0.103,-0.28,0.21,-3.57,-0.196,-0.33,-0.89
-0.952,0.275,0.114,-0.14,1.47,-3.71,-0.193,-0.333,-0.885
-0.941,0.271,0.115,0.35,0.77,-3.99,-0.195,-0.327,-0.888
-0.948,0.266,0.118,0.84,0.21,-4.62,-0.195,-0.332,-0.886
-0.961,0.26,0.12,0.77,0.49,-5.04,-0.195,-0.335,-0.886
-0.967,0.256,0.118,0.98,1.82,-4.97,-0.195,-0.334,-0.885
-0.963,0.258,0.119,2.17,3.64,-4.76,-0.195,-0.338,-0.884
-0.926,0.294,0.172,-2.94,8.75,-2.38,-0.195,-0.335,-0.887
-0.942,0.381,0.22,-21.21,9.52,-4.55,-0.195,-0.336,-0.888
-1.036,0.539,0.421,-47.32,7.49,-9.94,-0.192,-0.334,-0.889
-0.99,0.808,0.629,-35.07,6.02,-23.24,-0.193,-0.336,-0.888
-0.982,1.228,0.604,2.73,13.02,-46.34,-0.193,-0.338,-0.889
-1.018,1.398,0.405,56.49,25.41,-86.66,-0.187,-0.354,-0.894
-1.067,1.187,0.332,102.55,21.14,-95.83,-0.182,-0.364,-0.903
-1.093,1.02,0.467,108.43,11.2,-91.84,-0.174,-0.373,-0.909
-1.097,0.988,0.514,82.32,38.15,-117.95,-0.161,-0.396,-0.917
-0.996,1.001,0.422,36.89,84.139,-161.56,-0.151,-0.405,-0.935
-0.82,1.097,0.275,22.68,78.82,-182.77,-0.13,-0.437,-0.946
-0.801,1.097,0.188,29.12,59.85,-207.48,-0.12,-0.448,-0.947
-0.823,1.059,0.118,55.37,39.76,-222.81,-0.108,-0.465,-0.955
-0.864,0.959,0.145,76.23,28.42,-233.03,-0.07,-0.499,-0.974
-0.879,0.808,0.182,77.56,34.02,-244.93,-0.048,-0.509,-0.976
-0.832,0.72,0.18,60.899,48.09,-257.6,-0.002,-0.532,-0.988
-0.731,0.67,0.137,45.64,60.55,-269.08,0.021,-0.546,-1.002
-0.617,0.632,0.052,37.87,59.429,-285.46,0.046,-0.552,-1.009
-0.517,0.677,0.007,46.62,52.149,-292.88,0.104,-0.567,-1.019
-0.519,0.681,0.02,59.99,42.14,-298.69,0.13,-0.571,-1.019
-0.522,0.621,0.078,79.169,32.06,-299.53,0.156,-0.574,-1.032
-0.525,0.588,0.168,86.87,28.28,-301.071,0.213,-0.577,-1.052
-0.507,0.564,0.217,80.01,32.76,-305.2,0.242,-0.576,-1.057
-0.451,0.577,0.144,65.45,40.25,-304.15,0.304,-0.556,-1.065
-0.386,0.641,0.213,59.99,43.82,-297.71,0.328,-0.55,-1.064
-0.323,0.726,0.255,68.46,47.67,-284.76,0.353,-0.536,-1.068
-0.213,0.695,0.166,83.3,35.21,-271.67,0.403,-0.512,-1.08
-0.146,0.65,0.136,95.97,10.15,-256.2,0.419,-0.494,-1.088
-0.168,0.615,0.468,117.18,3.43,-229.53,0.439,-0.482,-1.104
-0.09,0.419,0.517,123.48,8.05,-221.34,0.47,-0.447,-1.113
0.012,0.42,0.46,109.48,11.9,-214.83,0.479,-0.429,-1.12
0.045,0.469,0.316,95.899,4.62,-204.4,0.507,-0.391,-1.128
0.097,0.313,0.273,88.27,-3.43,-196.77,0.516,-0.375,-1.133
0.157,0.235,0.468,61.95,-8.89,-181.02,0.52,-0.363,-1.132
0.21,0.304,0.53,23.31,-13.02,-153.02,0.538,-0.334,-1.137
0.3,0.314,0.52,22.75,-18.48,-134.54,0.537,-0.317,-1.139
0.306,0.275,0.565,11.27,-22.54,-123.97,0.55,-0.297,-1.147
0.373,0.264,0.608,1.61,-25.34,-110.39,0.544,-0.288,-1.147
0.401,0.258,0.765,-0.14,-25.55,-96.46,0.55,-0.28,-1.155
0.518,0.327,0.817,-0.7,-23.45,-74.2,0.545,-0.264,-1.156
0.551,0.32,0.782,6.72,-29.82,-63.91,0.545,-0.253,-1.167
0.546,0.256,0.799,13.09,-34.23,-57.26,0.55,-0.248,-1.163
0.571,0.195,0.81,18.97,-37.66,-50.12,0.546,-0.244,-1.168
0.545,0.159,0.744,31.36,-43.68,-41.51,0.545,-0.235,-1.169
0.518,0.091,0.797,53.27,-53.9,-32.55,0.537,-0.228,-1.181
0.588,0.07,0.852,44.87,-67.27,-30.66,0.536,-0.215,-1.19
0.663,0.142,0.999,45.29,-74.62,-29.82,0.533,-0.208,-1.193
0.641,0.138,1.02,47.04,-76.44,-30.17,0.528,-0.206,-1.204
0.611,0.121,1.018,45.57,-72.87,-29.05,0.517,-0.195,-1.215
0.597,0.093,1.064,42.84,-64.96,-23.66,0.518,-0.188,-1.219
0.562,0.044,1.144,37.59,-54.32,-17.01,0.51,-0.183,-1.233
0.528,0.008,1.156,10.15,-31.99,-11.2,0.511,-0.178,-1.234
0.534,0.08,1.113,-8.82,-16.59,-9.66,0.508,-0.182,-1.234
0.555,0.105,1.046,-20.51,-5.04,-7.7,0.507,-0.179,-1.239
0.55,0.11,1.017,-21.42,0.91,-4.76,0.505,-0.182,-1.24
0.516,0.118,0.993,-13.72,6.51,-0.28,0.503,-0.185,-1.237
0.522,0.118,0.992,-4.76,11.06,4.55,0.509,-0.186,-1.233
0.541,0.06,0.967,-0.21,13.65,8.4,0.509,-0.187,-1.234
0.549,0.075,0.934,-17.08,11.41,7.42,0.505,-0.191,-1.233
0.522,0.099,0.937,-18.06,9.1,9.03,0.508,-0.191,-1.233
0.526,0.066,0.912,-10.43,5.04,12.46,0.51,-0.195,-1.232
0.535,-0.006,0.886,-4.76,1.54,11.34,0.508,-0.194,-1.236
0.511,0.033,0.839,-12.74,-2.87,8.12,0.508,-0.199,-1.235
0.509,0.164,0.822,-17.5,-5.67,3.43,0.506,-0.201,-1.24
0.494,0.255,0.898,-15.05,-10.78,0.07,0.509,-0.202,-1.239
0.511,0.313,0.884,-9.94,-15.68,-3.29,0.507,-0.202,-1.239
0.495,0.2,0.88,-2.38,-19.18,-7.28,0.512,-0.2,-1.239
0.435,0.065,0.996,-11.76,-14.14,-7.49,0.504,-0.202,-1.24
0.449,0.132,0.989,-24.36,-8.82,-9.17,0.508,-0.202,-1.241
0.438,0.211,0.909,-19.74,-4.9,-7.77,0.507,-0.199,-1.244
0.45,0.21,0.803,-3.64,-4.34,-4.97,0.506,-0.201,-1.243
0.424,0.218,0.781,6.23,-5.81,-4.62,0.499,-0.196,-1.241
0.457,0.303,0.775,13.58,-8.05,-5.46,0.5,-0.199,-1.242
0.468,0.223,0.838,32.76,-15.61,-5.11,0.504,-0.195,-1.239
0.414,0.104,0.823,23.03,-19.11,-5.32,0.507,-0.193,-1.243
0.417,0.103,0.838,11.13,-20.86,-4.97,0.503,-0.188,-1.249
0.416,0.087,0.861,-0.56,-23.38,-4.62,0.497,-0.189,-1.249
0.426,0.081,0.884,-11.69,-25.69,-4.69,0.497,-0.191,-1.25
0.423,0.08,0.962,-21.35,-24.36,-4.2,0.495,-0.188,-1.261
0.422,0.117,1.042,-23.59,-21.35,-3.57,0.49,-0.196,-1.251
0.407,0.144,1.086,-16.45,-11.69,-2.31,0.489,-0.194,-1.256
0.397,0.133,1.017,-2.24,-6.02,-0.49,0.484,-0.198,-1.259
0.407,0.127,0.975,4.69,-2.24,1.12,0.487,-0.195,-1.264
0.415,0.13,0.938,10.15,-0.28,0.98,0.484,-0.191,-1.26
0.418,0.132,0.908,16.59,-0.49,1.26,0.486,-0.191,-1.259
0.408,0.093,0.912,17.92,-2.17,1.05,0.489,-0.194,-1.263
0.387,0.077,0.909,13.09,-4.2,1.68,0.489,-0.188,-1.259
0.367,0.086,0.927,7.07,-4.9,3.01,0.489,-0.19,-1.257
0.359,0.131,0.931,8.82,-5.04,3.71,0.482,-0.19,-1.26
0.356,0.121,0.943,10.78,-5.39,4.13,0.482,-0.189,-1.254
0.353,0.113,0.942,7.42,-4.2,3.57,0.487,-0.19,-1.256
0.368,0.121,0.922,5.6,-3.36,3.36,0.487,-0.188,-1.254
0.384,0.085,0.891,12.18,-3.78,4.76,0.481,-0.19,-1.259
0.371,0.088,0.871,12.81,-4.13,5.95,0.483,-0.185,-1.267
0.374,0.073,0.868,10.57,-5.6,8.75,0.482,-0.187,-1.263
0.373,0.117,0.898,3.71,-5.18,8.89,0.48,-0.187,-1.264
0.377,0.114,0.912,0.91,-4.97,8.89,0.485,-0.188,-1.262
0.398,0.113,0.905,-0.49,-4.48,7.0,0.475,-0.186,-1.259
0.419,0.145,0.884,-1.26,-4.9,4.83,0.477,-0.192,-1.263
0.426,0.178,0.845,2.45,-4.69,1.19,0.486,-0.187,-1.259
0.41,0.148,0.843,10.29,-3.99,-1.68,0.483,-0.19,-1.259
0.374,0.122,0.874,13.37,-0.84,-4.83,0.477,-0.185,-1.264
0.377,0.068,0.91,9.17,0.7,-4.76,0.482,-0.184,-1.264
0.369,0.103,0.903,2.38,2.1,-4.34,0.484,-0.182,-1.26
0.364,0.127,0.904,3.57,3.71,-1.75,0.484,-0.183,-1.26
0.345,0.11,0.909,5.32,4.34,0.21,0.485,-0.182,-1.264
0.357,0.109,0.922,3.43,5.53,2.1,0.486,-0.18,-1.257
0.367,0.121,0.932,0.91,5.81,3.5,0.484,-0.182,-1.26
0.361,0.137,0.928,4.62,4.62,5.11,0.481,-0.182,-1.258
0.4,0.078,0.925,7.28,4.55,5.46,0.483,-0.187,-1.257
0.42,0.091,0.94,6.86,3.43,6.51,0.484,-0.182,-1.258
0.428,0.1,0.956,8.12,1.89,7.49,0.486,-0.182,-1.256
0.421,0.086,0.942,9.24,0.91,7.63,0.483,-0.179,-1.258
0.415,0.07,0.944,8.47,1.4,7.0,0.488,-0.182,-1.253
0.427,0.05,0.934,6.65,2.94,5.46,0.491,-0.183,-1.256
0.437,0.037,0.946,6.3,4.97,5.25,0.487,-0.181,-1.252
0.442,0.022,0.931,6.93,7.28,5.46,0.488,-0.187,-1.256
0.423,0.037,0.926,6.72,9.1,6.44,0.492,-0.184,-1.258
0.407,0.048,0.92,6.09,10.08,7.0,0.487,-0.181,-1.253
0.407,0.066,0.926,2.45,10.64,7.49,0.487,-0.183,-1.251
0.416,0.094,0.932,-1.68,9.59,6.37,0.493,-0.184,-1.251
0.406,0.126,0.964,-1.4,9.03,7.07,0.491,-0.187,-1.248
0.407,0.092,0.975,-0.14,9.1,7.84,0.487,-0.181,-1.253
0.396,0.081,0.964,-0.21,9.59,11.48,0.495,-0.188,-1.252
0.398,0.026,0.958,-0.14,9.38,17.71,0.494,-0.19,-1.253
0.422,-0.013,0.93,-7.14,8.61,26.04,0.495,-0.187,-1.248
0.436,-0.026,0.939,-19.67,5.25,36.26,0.488,-0.194,-1.248
0.423,0.015,1.032,-36.54,3.01,49.0,0.496,-0.208,-1.25
0.425,0.084,1.058,-54.11,3.29,57.47,0.494,-0.219,-1.251
0.413,0.087,1.031,-73.36,-0.07,72.52,0.491,-0.226,-1.245
0.41,0.093,1.033,-87.01,-1.4,80.36,0.49,-0.252,-1.247
0.402,0.141,0.993,-98.35,-3.43,90.3,0.495,-0.268,-1.245
0.433,0.225,0.868,-103.6,-3.78,100.59,0.489,-0.274,-1.245
0.388,0.36,0.842,-104.16,-9.31,107.73,0.485,-0.301,-1.235
0.301,0.544,0.921,-96.11,-11.83,114.52,0.484,-0.317,-1.234
0.321,0.616,0.872,-73.99,-12.04,114.1,0.474,-0.342,-1.226
0.302,0.574,0.777,-48.3,-14.28,112.98,0.468,-0.351,-1.225
0.301,0.471,0.692,-38.5,-18.41,114.03,0.458,-0.359,-1.222
0.297,0.415,0.661,-44.45,-25.06,118.65,0.452,-0.376,-1.221
0.26,0.419,0.58,-51.45,-31.85,119.21,0.445,-0.384,-1.225
0.204,0.434,0.562,-58.38,-33.88,121.73,0.43,-0.408,-1.228
0.175,0.417,0.47,-66.36,-34.3,126.98,0.416,-0.417,-1.225
0.149,0.402,0.32,-66.92,-35.98,135.24,0.404,-0.427,-1.226
0.137,0.408,0.283,-52.43,-45.85,151.13,0.387,-0.446,-1.213
0.069,0.407,0.299,-11.48,-67.41,167.72,0.373,-0.455,-1.218
-0.055,0.362,0.371,-8.12,-76.86,174.93,0.339,-0.472,-1.221
-0.141,0.309,0.37,-20.23,-80.29,183.47,0.325,-0.473,-1.223
-0.222,0.288,0.259,-47.04,-82.6,199.92,0.306,-0.48,-1.219
-0.404,0.435,0.39,-76.79,-94.5,221.55,0.26,-0.5,-1.219
-0.547,0.645,0.455,-99.54,-101.99,226.45,0.243,-0.506,-1.213
-0.631,0.824,0.436,-115.92,-106.33,218.33,0.195,-0.515,-1.191
-0.688,0.894,0.33,-111.37,-113.19,213.85,0.175,-0.523,-1.184
-0.761,0.81,0.261,-65.38,-125.58,226.24,0.144,-0.525,-1.176
-0.99,0.775,0.56,-46.13,-129.29,225.68,0.095,-0.518,-1.158
-1.104,0.9,0.648,-46.9,-125.58,210.49,0.068,-0.515,-1.148
-1.094,0.867,0.62,-48.86,-117.39,192.64,0.031,-0.508,-1.136
-1.017,0.671,0.476,-48.79,-108.29,186.9,0.011,-0.503,-1.128
-1.026,0.611,0.412,-56.21,-112.49,184.17,-0.01,-0.501,-1.121
-1.126,0.639,0.469,-73.64,-125.3,172.69,-0.045,-0.484,-1.099
-1.212,0.668,0.544,-89.11,-121.38,154.0,-0.06,-0.478,-1.076
-1.206,0.653,0.532,-97.93,-86.38,140.0,-0.075,-0.464,-1.059
-1.08,0.589,0.419,-98.42,-78.05,133.14,-0.093,-0.457,-1.046
-1.041,0.517,0.364,-93.38,-83.79,128.66,-0.113,-0.451,-1.027
-1.083,0.434,0.325,-95.06,-87.36,124.25,-0.13,-0.441,-1.009
-1.138,0.413,0.301,-107.66,-77.98,118.02,-0.14,-0.435,-0.989
-1.107,0.435,0.259,-123.76,-58.17,106.75,-0.147,-0.426,-0.983
-1.033,0.45,0.215,-135.45,-42.0,95.409,-0.164,-0.409,-0.959
-0.99,0.446,0.176,-140.21,-34.86,86.03,-0.17,-0.4,-0.944
-0.985,0.448,0.159,-141.821,-32.76,75.6,-0.173,-0.382,-0.93
-1.009,0.461,0.154,-139.44,-27.86,57.05,-0.177,-0.379,-0.918
-1.02,0.476,0.152,-126.63,-13.23,47.18,-0.176,-0.372,-0.907
-0.988,0.472,0.138,-112.77,-3.43,39.2,-0.183,-0.362,-0.896
-0.936,0.455,0.131,-98.28,4.27,31.22,-0.189,-0.358,-0.889
-0.894,0.438,0.128,-84.0,9.73,22.96,-0.187,-0.348,-0.888
-0.868,0.411,0.122,-70.21,11.06,15.4,-0.192,-0.348,-0.882
-0.853,0.376,0.125,-58.24,11.48,9.03,-0.189,-0.34,-0.878
-0.836,0.344,0.125,-50.96,13.79,0.63,-0.192,-0.339,-0.88
-0.816,0.31,0.128,-46.48,21.21,-3.57,-0.192,-0.338,-0.878
-0.809,0.292,0.118,-46.69,23.38,-5.39,-0.193,-0.338,-0.877
-0.81,0.28,0.117,-48.79,23.52,-6.09,-0.195,-0.339,-0.878
-0.825,0.269,0.109,-51.87,24.15,-5.95,-0.195,-0.339,-0.875
-0.838,0.261,0.107,-56.77,26.25,-4.9,-0.191,-0.336,-0.878
-0.847,0.258,0.096,-62.58,29.68,-3.85,-0.186,-0.336,-0.877
-0.849,0.256,0.087,-73.57,34.09,-1.4,-0.194,-0.334,-0.886
-0.859,0.273,0.071,-81.55,34.58,-0.7,-0.192,-0.327,-0.881
-0.879,0.286,0.074,-87.15,34.37,-0.35,-0.2,-0.329,-0.879
-0.891,0.3,0.076,-89.95,34.93,-0.42,-0.196,-0.326,-0.869
-0.893,0.318,0.082,-90.79,34.44,-1.33,-0.199,-0.323,-0.869
-0.887,0.341,0.078,-89.11,32.9,-3.08,-0.202,-0.322,-0.871
-0.881,0.352,0.068,-84.35,30.31,-4.83,-0.202,-0.315,-0.873
-0.886,0.36,0.069,-76.72,25.97,-7.28,-0.2,-0.311,-0.871
-0.894,0.373,0.097,-58.52,21.0,-8.96,-0.204,-0.313,-0.869
-0.898,0.371,0.101,-43.19,17.36,-10.01,-0.2,-0.309,-0.864
-0.91,0.355,0.091,-29.12,12.67,-10.57,-0.2,-0.308,-0.868
-0.937,0.327,0.086,-19.25,8.96,-10.92,-0.199,-0.31,-0.867
-0.96,0.313,0.084,-14.07,7.63,-10.78,-0.204,-0.307,-0.87
-0.973,0.31,0.088,-11.41,7.42,-10.5,-0.196,-0.312,-0.875
-0.974,0.311,0.101,-7.7,5.6,-8.47,-0.198,-0.315,-0.874
-0.961,0.312,0.11,-4.55,3.43,-6.09,-0.199,-0.314,-0.875
-0.943,0.308,0.111,-1.68,0.91,-4.62,-0.196,-0.313,-0.873
-0.934,0.305,0.113,0.35,-0.77,-3.85,-0.201,-0.316,-0.876
-0.93,0.301,0.119,1.19,-1.19,-4.55,-0.199,-0.315,-0.872
-0.933,0.302,0.12,1.33,-1.05,-5.11,-0.196,-0.314,-0.875
-0.936,0.304,0.111,2.66,-0.91,-6.86,-0.201,-0.316,-0.875
-0.955,0.305,0.115,4.69,-0.91,-7.35,-0.202,-0.319,-0.88
-0.963,0.298,0.125,6.65,-0.07,-7.07,-0.202,-0.321,-0.883
-0.959,0.287,0.127,7.28,0.98,-7.0,-0.201,-0.319,-0.881
-0.954,0.286,0.127,6.37,0.56,-7.0,-0.202,-0.318,-0.882
-0.964,0.287,0.119,5.18,-0.28,-7.49,-0.197,-0.321,-0.883
-0.983,0.277,0.113,2.87,0.35,-9.59,-0.195,-0.324,-0.883
-0.962,0.276,0.122,1.89,4.2,-10.15,-0.197,-0.326,-0.881
-0.908,0.289,0.132,2.87,7.77,-9.94,-0.195,-0.326,-0.879
-0.879,0.303,0.129,7.56,5.81,-9.31,-0.2,-0.331,-0.882
-0.901,0.293,0.133,15.4,-1.19,-7.35,-0.194,-0.329,-0.885
-0.95,0.272,0.14,21.84,-4.97,-4.76,-0.192,-0.333,-0.883
-0.973,0.253,0.138,22.47,-2.73,-2.38,-0.191,-0.33,-0.887
-0.962,0.25,0.136,15.75,3.22,0.49,-0.185,-0.331,-0.893
-0.965,0.259,0.142,9.66,3.29,1.4,-0.193,-0.333,-0.893
-0.986,0.265,0.135,3.43,3.78,1.05,-0.194,-0.337,-0.893
-1.002,0.272,0.122,-2.24,5.95,0.56,-0.192,-0.332,-0.893
-1.002,0.289,0.122,-7.14,9.38,-0.42,-0.193,-0.332,-0.89
-0.987,0.304,0.125,-9.87,11.9,-1.82,-0.192,-0.329,-0.886
-0.978,0.314,0.119,-10.08,12.53,-2.94,-0.196,-0.335,-0.888
-0.981,0.312,0.12,-8.75,10.71,-3.64,-0.195,-0.332,-0.888
-0.981,0.311,0.12,-7.28,10.5,-3.29,-0.195,-0.335,-0.892
-0.961,0.3,0.119,-6.44,12.39,-3.01,-0.195,-0.335,-0.889
-0.925,0.302,0.119,-7.77,12.32,-3.85,-0.195,-0.335,-0.89
-0.91,0.309,0.111,-8.33,11.55,-4.41,-0.197,-0.332,-0.888
-0.907,0.314,0.102,-7.7,9.94,-4.55,-0.196,-0.333,-0.891
-0.914,0.319,0.094,-5.95,8.19,-3.99,-0.193,-0.336,-0.894
-0.929,0.321,0.088,-3.99,6.16,-2.59,-0.194,-0.333,-0.897
-0.952,0.321,0.083,-2.31,3.01,-0.7,-0.195,-0.334,-0.897
-0.977,0.325,0.078,-1.19,0.0,1.68,-0.197,-0.332,-0.898
-0.989,0.332,0.076,17.71,-3.57,4.76,-0.195,-0.328,-0.902
-0.97,0.344,0.082,2.73,-5.88,6.3,-0.194,-0.329,-0.902
-0.952,0.349,0.093,6.23,-9.1,6.65,-0.197,-0.329,-0.897
-0.944,0.342,0.106,9.59,-13.58,6.72,-0.198,-0.334,-0.899
-0.951,0.332,0.124,11.62,-15.89,6.86,-0.197,-0.333,-0.89
-0.963,0.34,0.135,10.22,-16.73,6.16,-0.199,-0.329,-0.888
-0.931,0.319,0.11,8.33,-12.81,2.24,-0.2,-0.327,-0.894
-0.893,0.329,0.091,9.52,-11.27,0.84,-0.198,-0.331,-0.886
-0.886,0.365,0.111,15.26,-14.7,-0.91,-0.195,-0.329,-0.886
-0.923,0.378,0.113,29.75,-19.32,-3.43,-0.197,-0.333,-0.886
-1.019,0.306,0.147,50.12,-27.3,-0.49,-0.194,-0.334,-0.886
-1.032,0.249,0.157,51.45,-23.31,3.43,-0.194,-0.335,-0.887
-1.006,0.214,0.146,39.9,-16.59,4.06,-0.192,-0.34,-0.896
-0.978,0.211,0.138,21.21,-11.55,2.8,-0.192,-0.339,-0.891
-0.958,0.238,0.133,2.94,-6.37,-0.49,-0.196,-0.34,-0.887
-0.937,0.28,0.129,-7.14,-2.66,-3.78,-0.19,-0.339,-0.891
-0.911,0.306,0.125,-9.03,-0.21,-4.62,-0.185,-0.34,-0.887
-0.896,0.318,0.134,0.63,-2.73,-3.85,-0.192,-0.338,-0.889
-0.928,0.31,0.143,9.66,-6.79,-1.05,-0.194,-0.339,-0.885
-0.961,0.291,0.148,14.77,-9.38,1.68,-0.194,-0.34,-0.887
-0.973,0.274,0.134,14.98,-8.33,3.64,-0.191,-0.335,-0.888
-0.958,0.27,0.129,11.76,-6.09,4.76,-0.189,-0.34,-0.887
-0.948,0.287,0.129,7.42,-3.99,4.06,-0.189,-0.338,-0.889
-0.946,0.296,0.118,3.71,-3.43,1.47,-0.191,-0.339,-0.895
-0.962,0.305,0.112,3.01,-2.59,1.68,-0.194,-0.336,-0.886
-0.972,0.308,0.109,4.83,-1.61,2.66,-0.191,-0.339,-0.887
-0.97,0.305,0.11,7.28,-1.19,3.85,-0.196,-0.342,-0.887
-0.939,0.303,0.116,7.14,-1.05,2.87,-0.193,-0.34,-0.889
-0.933,0.307,0.117,6.65,-2.17,1.12,-0.195,-0.343,-0.886
-0.95,0.306,0.113,6.37,-4.69,-0.7,-0.195,-0.343,-0.889
-0.974,0.298,0.12,6.58,-5.39,-0.49,-0.192,-0.344,-0.89
-0.973,0.281,0.138,6.44,-2.1,0.56,-0.194,-0.342,-0.885
-0.95,0.265,0.138,0.14,2.17,-0.28,-0.191,-0.341,-0.887
-0.967,0.274,0.105,-7.0,1.68,-2.03,-0.196,-0.345,-0.887
-1.012,0.294,0.11,-12.18,1.4,-3.15,-0.194,-0.341,-0.886
-0.995,0.322,0.115,-12.25,7.35,-2.59,-0.192,-0.339,-0.889
-0.912,0.328,0.106,-6.3,11.76,-2.17,-0.194,-0.339,-0.889
-0.87,0.318,0.101,1.05,6.02,-1.61,-0.19,-0.34,-0.883
-0.907,0.3,0.114,7.28,-4.97,-0.56,-0.191,-0.345,-0.892
-0.977,0.274,0.134,9.59,-9.45,1.89,-0.191,-0.343,-0.884
-0.995,0.253,0.125,4.41,-2.8,6.16,-0.192,-0.347,-0.885
-0.959,0.259,0.121,-4.2,2.8,6.86,-0.192,-0.344,-0.886
-0.931,0.275,0.128,-12.88,6.51,4.41,-0.192,-0.345,-0.888
-0.923,0.297,0.115,-18.97,8.12,0.28,-0.19,-0.342,-0.883
-0.956,0.317,0.092,-21.49,7.14,-3.57,-0.19,-0.342,-0.887
-0.993,0.323,0.103,-20.02,7.56,-4.55,-0.19,-0.343,-0.888
-0.977,0.327,0.105,-14.7,11.41,-3.29,-0.191,-0.342,-0.886
-0.936,0.315,0.101,-8.19,11.48,-1.19,-0.188,-0.343,-0.885
-0.925,0.298,0.103,-4.76,4.69,0.84,-0.192,-0.339,-0.888
-0.952,0.29,0.114,-5.53,-1.61,2.38,-0.193,-0.343,-0.894
-0.975,0.292,0.121,-7.42,0.28,2.87,-0.198,-0.339,-0.896
-0.955,0.298,0.116,-9.94,4.13,2.94,-0.192,-0.339,-0.893
-0.943,0.295,0.122,-11.76,6.44,1.19,-0.193,-0.336,-0.888
-0.95,0.284,0.13,-14.63,7.21,-0.77,-0.191,-0.338,-0.888
-0.959,0.276,0.126,-19.32,10.22,-3.43,-0.194,-0.333,-0.891
-0.963,0.279,0.113,-24.64,13.58,-5.18,-0.194,-0.333,-0.89
-0.964,0.287,0.101,-28.14,15.82,-6.23,-0.193,-0.336,-0.887
-0.965,0.295,0.088,-28.14,16.17,-4.9,-0.196,-0.336,-0.885
-0.958,0.301,0.085,-25.55,14.14,-2.94,-0.193,-0.338,-0.889
-0.946,0.306,0.088,-21.07,11.27,0.63,-0.197,-0.335,-0.883
-0.93,0.31,0.087,-16.87,7.42,3.92,-0.202,-0.331,-0.887
-0.925,0.318,0.086,-12.11,2.8,6.44,-0.199,-0.33,-0.886
-0.925,0.322,0.088,-6.93,-1.26,8.61,-0.199,-0.329,-0.888
-0.935,0.327,0.092,-2.38,-3.71,10.29,-0.195,-0.329,-0.884
-0.948,0.324,0.096,1.89,-5.88,11.55,-0.203,-0.328,-0.877
-0.963,0.317,0.097,4.55,-7.07,12.6,-0.203,-0.325,-0.881
-0.974,0.319,0.115,4.27,-6.86,12.53,-0.197,-0.329,-0.879
-0.956,0.329,0.119,3.99,-5.6,11.06,-0.198,-0.326,-0.882
-0.944,0.328,0.119,4.69,-6.58,8.89,-0.199,-0.324,-0.885
