ax,ay,az,gx,gy,gz,mx,my,mz
-0.142,0.317,0.96,-4.41,-1.96,-7.77,0.069,-0.355,-1.253
-0.163,0.326,0.961,-6.37,-4.27,-11.48,0.071,-0.357,-1.255
-0.184,0.335,0.983,-8.19,-4.76,-15.82,0.07,-0.36,-1.253
-0.184,0.369,1.005,-12.25,-1.47,-21.42,0.073,-0.354,-1.26
-0.172,0.413,1.019,-20.58,3.36,-31.99,0.078,-0.36,-1.257
-0.168,0.458,1.026,-28.0,5.53,-40.88,0.082,-0.363,-1.255
-0.184,0.56,1.049,-38.5,5.74,-55.65,0.088,-0.363,-1.25
-0.2,0.63,1.056,-50.82,5.67,-77.56,0.095,-0.375,-1.241
-0.182,0.628,1.053,-59.71,13.23,-96.95,0.105,-0.373,-1.242
-0.141,0.621,1.022,-86.03,30.73,-117.67,0.107,-0.381,-1.237
-0.054,0.529,0.953,-108.43,33.18,-132.09,0.129,-0.396,-1.226
-0.001,0.464,0.911,-135.24,33.32,-139.93,0.14,-0.402,-1.225
0.063,0.399,0.857,-169.89,33.11,-143.01,0.163,-0.42,-1.205
0.137,0.391,0.786,-201.95,33.81,-141.96,0.179,-0.429,-1.196
0.213,0.462,0.744,-228.2,32.76,-139.3,0.185,-0.441,-1.184
0.285,0.536,0.724,-243.18,29.12,-137.34,0.212,-0.459,-1.147
0.342,0.637,0.707,-245.35,21.07,-125.86,0.224,-0.468,-1.132
0.386,0.793,0.716,-222.6,16.17,-115.78,0.244,-0.476,-1.094
0.388,0.82,0.625,-192.22,16.59,-109.34,0.26,-0.486,-1.08
0.391,0.719,0.638,-162.26,15.33,-103.11,0.276,-0.491,-1.062
0.436,0.707,0.696,-144.55,14.7,-93.45,0.284,-0.494,-1.06
0.581,0.753,0.642,-131.25,26.95,-90.58,0.3,-0.492,-1.048
0.594,0.789,0.598,-97.58,14.35,-83.65,0.317,-0.497,-1.031
0.396,0.763,0.659,-61.39,2.94,-79.94,0.327,-0.494,-1.019
0.281,0.7,0.721,-19.95,7.14,-60.62,0.337,-0.489,-1.023
0.263,0.639,0.738,4.69,21.14,-47.25,0.346,-0.49,-1.024
0.315,0.507,0.656,21.42,34.93,-28.63,0.358,-0.487,-1.023
0.377,0.354,0.711,-10.22,49.84,-8.61,0.357,-0.491,-1.021
0.464,0.425,0.494,-65.52,56.909,-3.57,0.362,-0.495,-1.01
0.455,0.672,0.403,-108.99,57.96,-4.83,0.364,-0.491,-0.991
0.426,0.793,0.337,-103.6,58.45,-1.75,0.366,-0.494,-0.981
0.429,0.807,0.285,-69.65,57.96,11.62,0.368,-0.496,-0.965
0.446,0.72,0.276,-35.07,56.7,25.41,0.373,-0.498,-0.956
0.46,0.632,0.182,-16.94,50.61,37.8,0.364,-0.507,-0.956
0.518,0.367,0.214,-6.86,42.77,59.99,0.364,-0.508,-0.943
0.403,0.475,0.258,-84.91,31.99,65.659,0.358,-0.513,-0.935
0.318,0.686,0.408,-240.31,51.59,33.39,0.351,-0.513,-0.896
0.346,1.339,-0.081,-251.16,89.11,47.39,0.349,-0.51,-0.872
0.383,1.485,-0.087,-170.24,76.86,41.3,0.334,-0.502,-0.837
0.308,1.415,-0.143,-88.34,69.58,42.63,0.332,-0.502,-0.833
0.193,1.246,-0.121,7.84,44.66,50.679,0.324,-0.499,-0.832
0.124,0.885,-0.092,44.03,33.39,63.07,0.316,-0.51,-0.836
0.094,0.793,-0.004,37.66,21.07,77.07,0.308,-0.515,-0.834
0.038,0.782,0.097,-1.12,13.79,78.399,0.298,-0.517,-0.833
-0.012,0.968,0.027,-32.76,15.12,72.31,0.293,-0.519,-0.826
-0.028,1.089,-0.006,-21.77,16.73,68.179,0.279,-0.521,-0.816
0.012,0.993,0.025,-14.91,17.36,71.75,0.277,-0.522,-0.817
0.049,1.016,-0.003,-24.99,18.34,65.73,0.272,-0.521,-0.816
-0.006,1.038,-0.016,-29.4,16.52,56.07,0.258,-0.52,-0.809
-0.071,0.995,0.001,-23.87,15.12,50.82,0.254,-0.524,-0.808
-0.058,0.881,-0.018,-24.15,27.72,54.95,0.247,-0.52,-0.802
-0.175,0.947,0.061,-31.15,25.06,48.929,0.242,-0.519,-0.8
-0.264,0.819,0.059,-37.17,33.18,37.52,0.232,-0.521,-0.79
-0.132,0.788,-0.139,-50.54,56.21,44.17,0.221,-0.519,-0.781
0.059,0.986,-0.33,-53.83,56.909,46.27,0.217,-0.515,-0.78
0.081,1.209,-0.259,-32.34,33.46,41.72,0.206,-0.509,-0.771
0.033,1.212,-0.179,14.14,16.24,37.45,0.205,-0.512,-0.777
0.01,0.969,-0.171,57.26,-3.99,29.82,0.198,-0.519,-0.78
-0.021,1.004,-0.011,45.99,-6.93,21.77,0.195,-0.52,-0.783
0.045,0.861,-0.092,46.97,-3.08,10.22,0.193,-0.521,-0.786
0.031,0.748,-0.142,39.48,0.28,13.79,0.194,-0.524,-0.785
-0.001,0.701,-0.121,24.5,0.42,15.12,0.193,-0.53,-0.789
-0.036,0.766,-0.115,3.36,6.16,17.36,0.192,-0.525,-0.792
-0.026,0.867,-0.138,-8.47,14.42,23.24,0.186,-0.523,-0.798
-0.032,0.9,-0.189,-13.51,14.84,21.77,0.181,-0.523,-0.794
-0.045,0.982,-0.21,-22.75,12.18,21.49,0.178,-0.525,-0.791
-0.054,1.113,-0.199,-28.77,14.77,16.73,0.177,-0.518,-0.786
-0.03,1.168,-0.21,-17.78,13.86,10.99,0.171,-0.519,-0.786
-0.017,1.137,-0.181,8.61,3.64,9.1,0.171,-0.519,-0.785
-0.009,1.101,-0.098,18.2,-2.24,4.9,0.171,-0.522,-0.788
-0.015,1.124,-0.09,31.29,-3.43,5.95,0.173,-0.521,-0.79
-0.024,1.09,-0.013,43.33,-7.77,5.25,0.171,-0.528,-0.802
-0.042,0.975,-0.005,54.6,-8.75,-1.19,0.171,-0.526,-0.805
-0.086,0.89,-0.031,53.34,-6.65,-0.35,0.175,-0.529,-0.805
-0.137,0.911,-0.061,33.53,-10.78,-0.56,0.176,-0.535,-0.814
-0.143,0.975,-0.085,24.36,-5.25,2.17,0.177,-0.535,-0.815
-0.13,1.011,-0.101,14.07,-3.5,-2.31,0.18,-0.54,-0.826
-0.103,1.053,-0.049,9.8,-6.23,-4.13,0.177,-0.541,-0.818
-0.103,1.078,-0.01,13.02,-7.7,-4.69,0.182,-0.541,-0.822
-0.108,1.085,-0.005,12.39,-8.54,-11.06,0.183,-0.541,-0.826
-0.099,1.099,-0.022,14.0,-9.73,-14.07,0.186,-0.544,-0.856
-0.077,1.132,-0.018,21.84,-12.18,-14.63,0.183,-0.546,-0.83
-0.084,1.071,0.018,31.43,-17.92,-19.25,0.19,-0.545,-0.834
-0.11,0.978,0.021,39.55,-22.05,-21.77,0.193,-0.546,-0.838
-0.132,0.964,0.081,36.82,-24.71,-23.03,0.195,-0.55,-0.84
-0.139,0.978,0.086,37.59,-21.98,-21.35,0.197,-0.546,-0.856
-0.108,0.925,0.036,67.06,-21.56,-20.72,0.205,-0.554,-0.853
-0.117,0.91,0.116,59.57,-26.04,-17.5,0.208,-0.553,-0.859
-0.167,0.916,0.141,69.649,-27.23,-11.41,0.211,-0.56,-0.871
-0.188,0.83,0.163,68.879,-23.38,-8.82,0.213,-0.56,-0.876
-0.19,0.798,0.143,47.74,-15.05,-5.81,0.219,-0.557,-0.887
-0.164,0.824,0.145,19.6,-6.02,-5.74,0.221,-0.561,-0.887
-0.108,0.834,0.152,-2.17,-0.07,-6.58,0.22,-0.557,-0.885
-0.072,0.862,0.164,-19.25,0.7,-3.22,0.22,-0.565,-0.89
-0.046,0.951,0.124,-23.8,0.0,0.77,0.22,-0.562,-0.878
-0.016,1.021,0.122,-18.83,0.14,-0.77,0.221,-0.562,-0.878
-0.034,1.027,0.127,-8.75,-4.69,-3.36,0.22,-0.562,-0.88
-0.076,1.022,0.151,2.03,-9.66,1.4,0.22,-0.554,-0.879
-0.087,0.867,0.198,15.26,-6.44,2.31,0.219,-0.56,-0.877
-0.093,0.839,0.237,7.7,-5.74,4.41,0.217,-0.558,-0.888
-0.104,0.94,0.241,-6.72,-3.71,4.97,0.217,-0.558,-0.882
-0.101,1.018,0.18,-9.66,0.91,4.76,0.217,-0.563,-0.883
-0.102,0.953,0.105,-3.43,0.91,1.33,0.218,-0.562,-0.882
-0.103,0.856,0.123,-17.71,-2.94,3.64,0.216,-0.564,-0.883
-0.087,0.916,0.155,-9.94,-1.19,4.97,0.21,-0.562,-0.879
-0.055,0.975,0.142,-16.94,3.99,3.64,0.208,-0.559,-0.878
-0.035,1.06,0.066,-14.98,5.74,5.04,0.211,-0.561,-0.874
-0.035,1.075,0.053,0.28,1.26,3.85,0.211,-0.559,-0.875
-0.074,1.016,0.083,19.39,-4.48,5.32,0.212,-0.559,-0.873
-0.089,0.929,0.097,29.68,-6.02,8.26,0.213,-0.561,-0.884
-0.102,0.838,0.081,18.27,-3.43,6.93,0.212,-0.56,-0.88
-0.169,0.796,0.087,-0.7,-5.04,8.33,0.208,-0.562,-0.885
-0.164,0.89,0.147,-17.01,-1.61,12.25,0.211,-0.563,-0.886
-0.109,1.044,0.151,-24.22,6.58,13.58,0.206,-0.564,-0.882
-0.036,1.127,0.104,-9.52,8.54,15.68,0.203,-0.56,-0.881
-0.008,1.091,0.104,11.69,0.42,15.82,0.204,-0.556,-0.88
-0.05,1.023,0.175,20.93,-6.93,12.32,0.198,-0.561,-0.878
-0.076,0.972,0.193,19.81,-6.51,7.35,0.2,-0.565,-0.881
-0.091,0.964,0.221,18.76,-6.79,6.16,0.205,-0.561,-0.881
-0.113,0.968,0.227,18.69,-6.09,5.39,0.195,-0.564,-0.893
-0.139,0.903,0.18,16.52,-5.04,2.52,0.199,-0.564,-0.888
-0.16,0.914,0.134,-4.97,-2.59,1.12,0.197,-0.568,-0.888
-0.15,1.027,0.122,-16.38,-0.21,2.59,0.197,-0.566,-0.893
-0.125,1.087,0.122,-13.72,1.19,3.57,0.196,-0.56,-0.887
-0.074,1.059,0.131,-4.69,1.33,2.94,0.196,-0.566,-0.884
-0.027,1.027,0.047,2.31,0.98,4.06,0.195,-0.562,-0.883
-0.029,1.037,0.026,5.18,-8.05,4.76,0.198,-0.56,-0.884
-0.111,1.084,0.159,3.5,-11.9,3.29,0.194,-0.561,-0.886
-0.099,1.059,0.211,3.08,-4.34,0.0,0.19,-0.562,-0.881
-0.03,1.034,0.184,6.79,-0.84,0.07,0.194,-0.562,-0.88
-0.004,0.982,0.144,15.33,-4.69,2.24,0.195,-0.561,-0.88
-0.069,0.958,0.158,11.48,-13.02,2.03,0.192,-0.564,-0.888
-0.152,1.072,0.165,-15.75,-7.07,-2.1,0.195,-0.559,-0.883
-0.116,1.124,0.131,-17.92,0.56,-5.39,0.198,-0.559,-0.882
-0.046,1.057,0.19,-1.33,-0.35,-4.9,0.194,-0.561,-0.876
-0.043,0.992,0.217,10.99,-6.3,-2.8,0.194,-0.559,-0.884
-0.082,0.963,0.226,11.34,-7.7,-1.96,0.198,-0.56,-0.886
-0.116,0.978,0.226,-15.96,-2.38,-4.62,0.194,-0.566,-0.885
-0.1,1.059,0.185,-1.68,0.14,-4.48,0.198,-0.562,-0.884
-0.054,1.009,0.131,9.03,0.91,-4.9,0.196,-0.564,-0.883
-0.032,0.915,0.136,16.52,-3.15,-5.6,0.198,-0.565,-0.883
-0.058,0.897,0.158,13.37,-7.35,-4.76,0.196,-0.566,-0.89
-0.098,0.929,0.167,4.41,-6.58,-3.5,0.199,-0.564,-0.889
-0.076,0.919,0.161,3.57,-3.5,-3.64,0.198,-0.565,-0.889
-0.063,0.928,0.167,3.64,-3.64,-2.87,0.199,-0.569,-0.892
-0.079,0.965,0.175,5.11,-6.44,0.28,0.199,-0.566,-0.892
-0.092,0.952,0.186,6.02,-5.95,-0.98,0.2,-0.566,-0.901
-0.074,0.904,0.189,2.8,-2.73,-1.96,0.2,-0.563,-0.896
-0.034,0.916,0.156,-4.76,-0.14,0.07,0.201,-0.565,-0.895
-0.037,0.973,0.104,-7.0,-4.34,0.35,0.204,-0.567,-0.892
-0.069,1.032,0.158,-8.4,-7.0,-1.4,0.198,-0.562,-0.891
-0.077,1.033,0.19,-4.9,-4.34,-3.99,0.201,-0.563,-0.894
-0.069,0.966,0.236,3.57,-3.36,-3.36,0.205,-0.563,-0.895
-0.071,0.942,0.239,7.28,-5.6,-0.49,0.204,-0.562,-0.895
-0.076,0.941,0.218,7.56,-4.06,-0.28,0.206,-0.563,-0.892
-0.058,0.871,0.143,6.37,-2.31,-0.14,0.203,-0.564,-0.897
-0.067,0.886,0.194,-0.49,-4.2,1.75,0.204,-0.569,-0.896
-0.077,0.971,0.247,-4.34,-3.99,3.92,0.202,-0.569,-0.893
-0.055,0.98,0.217,-0.35,0.14,3.85,0.2,-0.566,-0.89
-0.046,0.934,0.179,1.82,-0.56,3.01,0.2,-0.566,-0.894
-0.063,0.957,0.167,-2.87,-2.31,4.2,0.201,-0.563,-0.891
-0.052,0.991,0.194,-3.64,-0.63,3.99,0.197,-0.563,-0.892
-0.037,1.009,0.172,-3.29,-0.56,4.06,0.201,-0.567,-0.891
-0.04,1.055,0.154,-4.34,-1.82,3.29,0.2,-0.565,-0.884
-0.047,1.053,0.155,-2.31,-2.24,0.42,0.198,-0.568,-0.878
-0.023,1.011,0.197,1.05,-2.38,-0.7,0.197,-0.561,-0.883
-0.013,0.991,0.172,1.61,-1.61,-0.84,0.192,-0.565,-0.88
-0.021,0.967,0.144,5.18,-2.8,0.0,0.196,-0.56,-0.886
-0.045,0.957,0.164,5.95,-4.41,-0.49,0.193,-0.562,-0.896
-0.057,0.954,0.19,3.85,-3.01,-1.26,0.196,-0.563,-0.887
-0.034,0.95,0.138,5.32,-0.07,-0.49,0.194,-0.565,-0.9
-0.026,0.948,0.083,8.68,-3.22,1.12,0.197,-0.563,-0.897
-0.073,0.932,0.111,7.14,-10.01,-1.89,0.197,-0.567,-0.898
-0.11,0.926,0.186,0.63,-5.88,-1.96,0.197,-0.567,-0.897
-0.077,0.927,0.165,1.4,-2.66,0.42,0.2,-0.567,-0.9
-0.047,0.883,0.167,3.64,-4.27,1.19,0.199,-0.567,-0.9
-0.041,0.842,0.201,1.05,-5.53,2.38,0.196,-0.565,-0.902
-0.037,0.869,0.188,-5.53,-4.83,5.04,0.201,-0.567,-0.893
-0.032,0.989,0.154,-12.18,-5.11,6.3,0.2,-0.567,-0.892
-0.071,1.036,0.132,-12.6,-6.93,4.2,0.199,-0.568,-0.888
-0.093,1.065,0.174,-9.24,-7.42,2.94,0.195,-0.561,-0.893
-0.083,1.072,0.177,-2.17,-6.09,3.29,0.197,-0.561,-0.892
-0.052,1.047,0.224,6.72,-5.46,4.06,0.197,-0.561,-0.893
-0.041,1.003,0.222,11.27,-5.53,2.59,0.194,-0.566,-0.897
-0.082,0.999,0.211,0.7,-6.86,-0.56,0.198,-0.564,-0.897
-0.097,1.01,0.18,-2.87,-5.6,-3.5,0.196,-0.561,-0.9
-0.076,0.959,0.179,2.73,-4.06,-2.45,0.195,-0.568,-0.898
-0.063,0.924,0.221,7.28,-6.3,0.49,0.194,-0.565,-0.898
-0.088,0.928,0.233,6.72,-7.07,2.17,0.192,-0.562,-0.893
-0.116,0.918,0.207,1.12,-4.27,2.52,0.196,-0.569,-0.902
-0.12,0.948,0.191,-3.36,-2.59,3.78,0.194,-0.566,-0.9
-0.092,0.942,0.168,-2.59,-1.61,5.25,0.197,-0.565,-0.895
-0.064,0.927,0.187,-1.4,-1.4,6.23,0.196,-0.563,-0.893
-0.075,0.962,0.196,-1.75,-2.94,8.54,0.193,-0.565,-0.894
-0.105,1.001,0.207,-3.22,-3.5,6.93,0.197,-0.567,-0.896
-0.088,1.024,0.174,-5.39,0.28,4.97,0.192,-0.567,-0.895
-0.057,1.048,0.153,-4.62,1.19,3.29,0.189,-0.566,-0.892
-0.061,1.03,0.185,3.15,-2.52,3.36,0.189,-0.561,-0.899
-0.11,0.99,0.2,9.1,-6.09,2.94,0.189,-0.563,-0.897
-0.148,0.983,0.212,7.21,-4.97,2.24,0.189,-0.568,-0.901
-0.108,0.996,0.19,-2.31,4.34,-1.54,0.185,-0.567,-0.898
-0.075,0.994,0.171,-2.1,4.69,-3.15,0.188,-0.565,-0.891
-0.082,0.961,0.125,4.34,-0.49,-2.17,0.189,-0.563,-0.899
-0.104,0.908,0.108,6.86,-3.78,-2.17,0.19,-0.565,-0.899
-0.119,0.899,0.099,0.56,-3.36,-2.24,0.191,-0.566,-0.9
-0.117,0.938,0.109,-6.44,-1.54,-1.12,0.189,-0.566,-0.901
-0.11,1.018,0.166,-3.78,-1.89,0.07,0.194,-0.564,-0.893
-0.125,0.972,0.182,7.49,-3.08,0.7,0.19,-0.566,-0.895
-0.143,0.896,0.175,11.83,-4.76,1.89,0.189,-0.567,-0.899
-0.141,0.883,0.163,5.81,-2.8,3.08,0.187,-0.566,-0.899
-0.128,0.9,0.179,-4.27,-0.7,3.15,0.188,-0.566,-0.904
-0.147,0.958,0.204,-5.95,-1.61,4.76,0.185,-0.568,-0.903
-0.129,0.996,0.221,-3.08,0.07,5.95,0.185,-0.568,-0.908
-0.097,0.975,0.205,0.91,1.82,4.27,0.189,-0.563,-0.9
-0.089,0.971,0.183,0.49,0.0,4.27,0.182,-0.568,-0.898
-0.119,1.015,0.18,-2.59,-1.19,4.13,0.184,-0.565,-0.897
-0.141,1.052,0.166,-3.78,0.21,1.61,0.182,-0.564,-0.895
-0.125,1.074,0.151,-1.4,1.54,-1.19,0.183,-0.564,-0.901
-0.126,1.049,0.119,2.38,-0.14,-3.99,0.185,-0.567,-0.901
-0.141,0.999,0.108,9.03,-2.94,-4.62,0.181,-0.567,-0.896
-0.167,0.937,0.147,11.27,-5.18,-4.76,0.183,-0.572,-0.894
-0.188,0.928,0.168,6.65,-5.53,-4.48,0.182,-0.569,-0.903
-0.143,0.968,0.18,-1.54,0.07,-5.11,0.182,-0.567,-0.91
-0.124,0.957,0.196,-3.57,0.49,-7.77,0.179,-0.565,-0.905
-0.129,0.988,0.208,-2.87,-2.66,-8.19,0.183,-0.569,-0.9
-0.153,1.001,0.219,2.94,-4.97,-7.98,0.184,-0.567,-0.902
-0.174,0.986,0.199,11.34,-6.72,-9.8,0.191,-0.569,-0.903
-0.186,0.893,0.211,19.88,-7.49,-10.15,0.194,-0.569,-0.908
-0.205,0.875,0.172,17.57,-7.63,-9.59,0.192,-0.57,-0.908
-0.193,0.852,0.201,13.37,-10.99,-8.96,0.191,-0.57,-0.911
-0.19,0.871,0.172,7.14,-12.6,-5.67,0.192,-0.571,-0.908
-0.21,0.887,0.231,-3.71,-21.0,-11.48,0.197,-0.569,-0.908
-0.251,0.906,0.132,-11.62,-30.03,-18.62,0.198,-0.565,-0.909
-0.238,0.892,0.091,-9.59,-35.49,-19.88,0.203,-0.569,-0.914
-0.253,0.966,0.214,-10.71,-45.99,-24.43,0.204,-0.569,-0.901
-0.268,1.071,0.249,-1.75,-47.04,-24.29,0.212,-0.567,-0.9
-0.25,0.965,0.208,20.3,-45.43,-21.63,0.211,-0.567,-0.904
-0.264,0.92,0.169,19.39,-54.81,-20.58,0.216,-0.567,-0.906
-0.283,1.083,0.174,19.04,-52.08,-27.16,0.224,-0.568,-0.904
-0.271,0.976,0.358,51.94,-44.45,-22.61,0.227,-0.567,-0.917
-0.329,0.734,0.405,83.79,-41.3,-2.38,0.225,-0.571,-0.934
-0.393,0.888,0.614,94.149,-33.81,2.45,0.227,-0.571,-0.945
-0.338,0.848,0.572,125.93,1.33,12.67,0.228,-0.568,-0.967
-0.237,0.795,0.33,160.3,-6.93,22.54,0.226,-0.572,-0.98
-0.257,0.712,0.352,182.91,-19.74,31.01,0.226,-0.568,-1.011
-0.32,0.649,0.43,179.76,-24.71,28.91,0.219,-0.562,-1.032
-0.349,0.634,0.459,164.99,-24.92,24.71,0.22,-0.563,-1.049
-0.358,0.667,0.443,149.73,-22.47,24.29,0.209,-0.553,-1.067
-0.405,0.583,0.389,125.79,-25.83,13.44,0.208,-0.549,-1.089
-0.395,0.598,0.497,107.87,-22.4,11.2,0.208,-0.544,-1.109
-0.345,0.685,0.549,94.08,-7.91,10.36,0.201,-0.544,-1.117
-0.29,0.731,0.589,89.6,-3.85,5.81,0.206,-0.531,-1.129
-0.305,0.761,0.587,99.05,-9.94,4.27,0.201,-0.531,-1.139
-0.324,0.694,0.605,113.12,-14.84,6.3,0.2,-0.523,-1.155
-0.288,0.658,0.601,123.83,-1.05,13.51,0.195,-0.508,-1.179
-0.223,0.621,0.614,121.03,-0.7,13.02,0.194,-0.507,-1.177
-0.252,0.558,0.679,113.33,-11.34,13.58,0.192,-0.5,-1.201
-0.257,0.51,0.763,101.64,-11.76,19.74,0.188,-0.492,-1.205
-0.188,0.523,0.802,85.889,6.86,24.22,0.187,-0.484,-1.217
-0.089,0.547,0.779,65.659,16.1,22.54,0.177,-0.476,-1.22
-0.052,0.496,0.822,61.25,3.01,27.86,0.179,-0.469,-1.223
-0.067,0.442,0.91,53.34,0.14,40.53,0.174,-0.465,-1.228
-0.038,0.48,0.916,30.94,11.48,49.0,0.17,-0.459,-1.235
0.043,0.569,0.918,7.84,24.01,46.06,0.159,-0.456,-1.231
0.121,0.621,0.915,-1.54,27.09,41.72,0.157,-0.455,-1.229
0.149,0.641,0.92,6.72,15.47,44.8,0.149,-0.45,-1.229
0.146,0.624,0.969,14.07,12.11,47.46,0.147,-0.446,-1.231
0.16,0.627,0.949,14.0,15.68,49.0,0.142,-0.448,-1.224
0.174,0.642,0.957,16.94,16.24,47.11,0.129,-0.437,-1.223
0.164,0.676,0.973,23.1,14.07,44.24,0.128,-0.438,-1.229
0.159,0.665,1.024,35.7,14.07,39.9,0.121,-0.433,-1.225
0.177,0.603,1.006,39.34,16.52,39.27,0.112,-0.432,-1.226
0.187,0.554,0.992,37.66,16.66,39.83,0.112,-0.428,-1.226
0.172,0.538,0.991,27.51,16.1,39.69,0.104,-0.424,-1.223
0.151,0.546,0.998,13.86,18.62,37.24,0.1,-0.417,-1.225
0.157,0.577,0.968,3.01,27.02,31.71,0.095,-0.42,-1.223
0.209,0.557,0.956,-2.52,31.92,19.18,0.094,-0.419,-1.22
0.212,0.501,0.991,-5.04,26.53,15.33,0.091,-0.421,-1.215
0.196,0.467,1.027,-15.4,24.71,18.97,0.089,-0.417,-1.217
0.183,0.49,1.057,-32.76,27.72,22.89,0.086,-0.424,-1.197
0.181,0.541,1.054,-43.82,29.96,24.29,0.079,-0.426,-1.194
0.17,0.682,1.049,-41.09,30.31,24.64,0.081,-0.429,-1.192
0.174,0.757,1.05,-22.33,35.14,16.94,0.076,-0.426,-1.183
0.195,0.731,0.988,3.85,38.64,4.83,0.078,-0.428,-1.189
0.211,0.614,0.924,30.45,36.54,-3.43,0.08,-0.422,-1.181
0.193,0.505,0.883,45.78,30.59,-6.09,0.083,-0.416,-1.186
0.123,0.411,0.856,47.95,24.64,-10.01,0.092,-0.41,-1.194
0.086,0.337,0.832,45.43,24.64,-10.36,0.093,-0.411,-1.195
0.075,0.274,0.775,40.67,26.18,-7.28,0.093,-0.405,-1.193
0.088,0.223,0.729,33.39,26.32,-4.69,0.102,-0.405,-1.204
0.102,0.192,0.7,25.62,22.12,-3.43,0.106,-0.399,-1.202
0.104,0.168,0.684,16.59,14.0,-1.12,0.111,-0.397,-1.21
0.089,0.213,0.715,8.96,0.28,8.26,0.108,-0.392,-1.209
0.067,0.205,0.772,9.24,-7.14,15.61,0.105,-0.393,-1.208
0.058,0.228,0.853,11.27,-15.19,24.15,0.1,-0.392,-1.21
0.034,0.276,0.958,15.54,-23.73,32.13,0.099,-0.388,-1.211
-0.008,0.331,1.07,19.67,-31.43,34.37,0.088,-0.383,-1.218
-0.061,0.372,1.129,18.76,-35.63,27.72,0.084,-0.39,-1.218
-0.095,0.351,1.093,19.32,-33.11,12.18,0.077,-0.379,-1.214
-0.137,0.27,0.981,22.19,-30.94,12.18,0.073,-0.382,-1.22
-0.166,0.248,0.995,21.63,-26.53,13.23,0.073,-0.378,-1.23
-0.18,0.238,1.018,12.11,-18.69,9.66,0.065,-0.377,-1.219
-0.166,0.249,1.014,-3.64,-8.54,4.83,0.066,-0.376,-1.219
-0.133,0.298,0.97,-17.99,-1.33,3.01,0.064,-0.378,-1.225
-0.088,0.37,0.919,-23.1,0.91,5.18,0.064,-0.379,-1.22
-0.076,0.395,0.917,-18.27,-1.33,6.79,0.063,-0.386,-1.214
-0.071,0.396,0.914,-14.91,-3.15,9.52,0.06,-0.386,-1.214
-0.065,0.399,0.929,-12.6,-3.78,10.92,0.058,-0.383,-1.209
-0.061,0.411,0.914,-10.71,-4.2,9.87,0.06,-0.389,-1.208
-0.06,0.422,0.916,-7.14,-5.25,6.37,0.06,-0.388,-1.204
-0.062,0.409,0.923,-4.97,-6.86,3.78,0.061,-0.389,-1.207
-0.072,0.387,0.927,-2.24,-7.84,1.33,0.057,-0.391,-1.206
-0.084,0.363,0.933,-1.33,-8.75,-0.21,0.056,-0.388,-1.211
-0.095,0.356,0.938,-2.52,-8.82,-1.54,0.054,-0.387,-1.212
-0.104,0.355,0.935,-3.99,-8.05,-2.87,0.053,-0.392,-1.212
-0.105,0.359,0.93,-3.5,-5.74,-3.22,0.054,-0.386,-1.211
-0.098,0.362,0.932,-2.59,-5.11,-3.29,0.054,-0.392,-1.207
-0.091,0.36,0.926,-0.56,-4.55,-2.94,0.052,-0.389,-1.206
-0.088,0.349,0.924,1.19,-5.11,-2.03,0.049,-0.39,-1.206
-0.088,0.345,0.93,1.19,-5.11,-0.49,0.057,-0.391,-1.203
-0.095,0.345,0.932,0.35,-4.76,0.35,0.055,-0.389,-1.204
-0.096,0.339,0.934,-1.75,-4.06,0.77,0.057,-0.393,-1.206
-0.095,0.346,0.93,-4.13,-3.36,0.98,0.052,-0.391,-1.205
-0.094,0.356,0.93,-5.67,-2.87,0.77,0.051,-0.392,-1.213
-0.096,0.36,0.93,-5.74,-3.01,0.91,0.053,-0.393,-1.2
-0.097,0.359,0.927,-5.39,-2.59,1.61,0.051,-0.396,-1.201
-0.096,0.367,0.919,-5.67,-2.38,2.52,0.059,-0.397,-1.204
-0.098,0.376,0.918,-5.53,-2.59,1.96,0.055,-0.395,-1.206
-0.1,0.375,0.921,-4.55,-2.52,2.24,0.05,-0.393,-1.206
-0.101,0.381,0.919,-4.41,-2.38,2.38,0.055,-0.393,-1.199
-0.102,0.383,0.915,-4.48,-2.24,1.19,0.055,-0.394,-1.198
-0.102,0.381,0.918,-4.76,-2.87,0.42,0.05,-0.395,-1.198
-0.105,0.381,0.922,-4.06,-2.59,0.56,0.057,-0.393,-1.2
-0.108,0.378,0.922,-4.13,-2.73,0.84,0.053,-0.393,-1.204
-0.109,0.383,0.919,-5.04,-2.52,0.98,0.053,-0.396,-1.206
-0.11,0.388,0.916,-4.27,-1.89,0.63,0.054,-0.4,-1.201
-0.107,0.386,0.918,-3.08,-1.61,1.12,0.053,-0.401,-1.202
-0.105,0.387,0.915,-2.17,-1.47,1.33,0.054,-0.398,-1.204
-0.103,0.388,0.914,-1.96,-1.26,1.33,0.054,-0.396,-1.203
