ax,ay,az,gx,gy,gz,mx,my,mz
-0.166,0.154,0.984,4.34,-1.4,-5.67,0.11,-0.32,-1.289
-0.182,0.163,0.995,3.5,-1.96,-5.88,0.114,-0.315,-1.292
-0.194,0.168,0.993,2.31,-1.61,-6.51,0.112,-0.312,-1.3
-0.2,0.174,1.001,0.98,-0.7,-7.98,0.114,-0.315,-1.298
-0.209,0.182,1.01,-0.21,1.33,-9.17,0.112,-0.313,-1.295
-0.214,0.201,1.042,-1.05,3.01,-10.08,0.115,-0.313,-1.289
-0.223,0.221,1.053,-3.5,4.9,-15.47,0.116,-0.315,-1.292
-0.22,0.247,1.071,-9.24,10.29,-20.02,0.116,-0.313,-1.297
-0.205,0.3,1.117,-13.72,15.05,-27.37,0.124,-0.316,-1.287
-0.203,0.368,1.138,-18.48,17.92,-36.68,0.13,-0.317,-1.287
-0.209,0.373,1.158,-22.61,19.39,-47.39,0.134,-0.321,-1.288
-0.198,0.306,1.161,-48.02,32.83,-64.89,0.143,-0.324,-1.287
-0.11,0.239,1.111,-81.2,47.81,-77.77,0.158,-0.335,-1.282
-0.026,0.296,1.063,-116.34,61.32,-91.77,0.166,-0.344,-1.273
0.038,0.364,1.015,-144.41,69.159,-104.58,0.17,-0.358,-1.268
0.094,0.366,0.965,-162.821,69.51,-112.84,0.2,-0.377,-1.25
0.147,0.366,0.927,-179.62,69.3,-117.67,0.209,-0.385,-1.233
0.234,0.367,0.898,-197.26,66.01,-124.81,0.236,-0.402,-1.219
0.36,0.385,0.824,-214.41,64.47,-131.11,0.248,-0.413,-1.199
0.506,0.469,0.683,-226.24,46.69,-129.71,0.26,-0.426,-1.189
0.528,0.54,0.702,-216.3,23.66,-127.12,0.28,-0.445,-1.155
0.533,0.59,0.747,-193.69,11.48,-124.18,0.294,-0.453,-1.145
0.546,0.605,0.713,-162.68,4.13,-115.64,0.312,-0.461,-1.13
0.529,0.566,0.791,-123.9,-7.21,-106.47,0.325,-0.461,-1.115
0.487,0.455,0.859,-78.47,-12.18,-94.36,0.335,-0.464,-1.106
0.459,0.462,0.964,-67.62,-2.59,-85.54,0.346,-0.467,-1.11
0.5,0.474,0.908,-59.36,16.24,-76.37,0.355,-0.465,-1.102
0.625,0.504,0.828,-48.72,32.76,-57.61,0.371,-0.467,-1.097
0.675,0.53,0.843,-41.44,39.34,-47.6,0.377,-0.468,-1.09
0.561,0.514,0.8,-11.34,40.6,-28.91,0.388,-0.467,-1.08
0.313,0.291,0.89,-3.01,44.59,-13.86,0.396,-0.464,-1.084
0.216,0.305,0.889,-47.95,58.1,-4.55,0.403,-0.465,-1.066
0.339,0.34,0.862,-91.49,93.1,5.25,0.407,-0.47,-1.056
0.496,0.611,0.67,-116.34,108.29,28.49,0.41,-0.48,-1.025
0.368,0.91,0.61,-124.53,93.52,21.07,0.409,-0.481,-1.014
0.189,0.421,0.373,-87.43,102.9,17.57,0.41,-0.481,-0.997
0.315,0.254,-0.122,-123.06,104.16,55.23,0.408,-0.492,-0.971
0.308,0.856,0.026,-218.4,91.629,25.55,0.406,-0.496,-0.949
0.289,1.038,-0.065,-212.8,90.649,-3.22,0.404,-0.492,-0.906
0.171,1.237,0.059,-141.19,85.82,36.96,0.399,-0.496,-0.892
0.271,1.132,-0.002,-48.37,94.99,38.85,0.398,-0.497,-0.881
0.37,0.96,-0.126,1.33,76.58,48.649,0.389,-0.496,-0.87
0.261,0.819,-0.157,32.62,58.24,52.01,0.38,-0.497,-0.871
0.058,0.833,0.06,28.77,42.7,53.76,0.374,-0.508,-0.868
0.183,0.718,0.009,44.03,53.129,66.22,0.367,-0.512,-0.876
0.334,0.784,-0.113,36.75,49.139,76.09,0.354,-0.518,-0.871
0.171,0.778,-0.051,46.2,10.85,75.74,0.353,-0.522,-0.872
0.12,0.771,-0.074,47.88,3.64,86.59,0.335,-0.527,-0.88
0.128,0.739,-0.02,40.39,4.27,93.94,0.33,-0.528,-0.888
0.133,0.738,-0.033,31.92,0.63,97.65,0.322,-0.535,-0.893
0.087,0.782,-0.012,23.45,-7.07,98.49,0.305,-0.54,-0.897
0.016,0.95,0.019,-1.68,-15.12,92.05,0.301,-0.538,-0.893
-0.022,1.013,0.109,-18.69,-8.89,84.0,0.284,-0.55,-0.889
-0.043,1.09,0.157,-20.23,-3.43,81.69,0.274,-0.549,-0.892
-0.021,1.102,0.21,-5.95,-0.35,76.3,0.267,-0.551,-0.891
-0.027,1.068,0.275,5.04,5.67,67.27,0.261,-0.557,-0.887
-0.044,0.988,0.318,4.34,4.69,52.919,0.253,-0.55,-0.887
-0.09,0.905,0.361,-7.0,15.4,54.74,0.246,-0.55,-0.887
-0.077,0.935,0.356,-28.35,24.85,50.96,0.239,-0.555,-0.89
-0.044,1.0,0.266,-34.58,34.09,48.58,0.231,-0.552,-0.876
-0.01,1.049,0.23,-27.51,33.39,47.39,0.224,-0.551,-0.874
-0.011,1.048,0.187,-18.97,26.18,40.74,0.217,-0.551,-0.871
-0.044,1.03,0.127,-16.94,22.26,28.84,0.212,-0.549,-0.876
-0.085,1.026,0.109,-18.27,16.38,20.23,0.212,-0.553,-0.862
-0.097,1.027,0.126,-11.27,16.66,22.61,0.21,-0.551,-0.855
-0.077,1.053,0.106,-6.51,21.07,22.12,0.204,-0.552,-0.854
-0.037,1.031,0.085,-6.16,22.33,17.29,0.2,-0.548,-0.855
-0.022,1.036,0.055,-5.11,17.99,15.33,0.2,-0.551,-0.852
-0.03,1.075,0.061,-4.06,9.8,13.86,0.199,-0.551,-0.859
-0.075,1.114,0.071,-0.91,3.85,6.51,0.197,-0.552,-0.855
-0.117,1.054,0.093,5.46,-0.21,2.87,0.195,-0.556,-0.859
-0.149,1.029,0.108,2.87,2.31,5.25,0.19,-0.554,-0.858
-0.131,1.097,0.073,3.71,5.53,8.89,0.193,-0.559,-0.867
-0.11,1.046,0.083,10.78,5.18,3.57,0.192,-0.558,-0.866
-0.106,0.948,0.111,11.41,0.77,-1.61,0.188,-0.56,-0.861
-0.122,1.014,0.122,-1.75,-3.15,-0.77,0.188,-0.557,-0.866
-0.118,1.027,0.12,-2.03,-2.38,-4.2,0.187,-0.556,-0.852
-0.092,0.999,0.088,-0.77,0.7,-5.67,0.193,-0.557,-0.862
-0.087,1.005,0.026,-2.52,-1.26,-6.72,0.197,-0.555,-0.861
-0.101,1.006,0.049,-0.42,-6.72,-6.79,0.197,-0.558,-0.856
-0.123,0.988,0.073,15.05,-9.03,-2.38,0.199,-0.555,-0.862
-0.118,0.954,0.059,22.05,-6.79,1.05,0.196,-0.557,-0.865
-0.112,0.926,0.058,17.92,-6.09,0.63,0.196,-0.556,-0.863
-0.114,0.919,0.085,10.5,-6.16,1.05,0.196,-0.559,-0.87
-0.11,0.953,0.148,0.21,-6.16,2.87,0.206,-0.553,-0.868
-0.081,1.026,0.148,-5.74,-1.68,3.01,0.2,-0.556,-0.864
-0.067,1.062,0.123,-4.48,-2.73,-2.17,0.196,-0.555,-0.865
-0.102,1.069,0.185,1.05,-8.54,-4.41,0.203,-0.556,-0.869
-0.096,1.05,0.226,14.21,-6.3,-3.36,0.201,-0.558,-0.868
-0.07,0.997,0.176,22.68,-2.45,-4.69,0.201,-0.562,-0.865
-0.064,0.945,0.104,24.57,-3.78,-6.09,0.205,-0.557,-0.875
-0.113,0.913,0.119,16.1,-7.28,-9.03,0.203,-0.562,-0.869
-0.148,0.885,0.125,13.3,-7.77,-8.61,0.203,-0.561,-0.88
-0.148,0.877,0.128,7.07,-4.76,-8.05,0.21,-0.558,-0.879
-0.102,0.853,0.093,8.19,-0.28,-6.02,0.211,-0.562,-0.881
-0.102,0.806,0.042,8.26,-2.87,-6.3,0.211,-0.56,-0.878
-0.162,0.848,0.081,0.49,-9.59,-0.77,0.211,-0.561,-0.881
-0.158,0.878,0.104,-1.4,-5.67,3.08,0.207,-0.559,-0.88
-0.115,0.918,0.092,-4.13,0.91,4.62,0.208,-0.56,-0.884
-0.072,0.943,0.083,-1.47,0.07,5.04,0.207,-0.562,-0.881
-0.09,0.89,0.114,4.13,-7.07,2.73,0.21,-0.56,-0.88
-0.13,0.888,0.163,5.11,-11.27,5.11,0.212,-0.557,-0.88
-0.126,0.919,0.156,7.0,-6.86,9.31,0.204,-0.56,-0.888
-0.109,0.856,0.11,4.55,-4.06,7.14,0.206,-0.561,-0.89
-0.138,0.888,0.157,-7.07,-6.37,6.58,0.202,-0.562,-0.885
-0.136,0.969,0.187,-12.46,-4.41,8.54,0.204,-0.561,-0.883
-0.092,1.007,0.164,-7.98,-0.42,8.61,0.202,-0.559,-0.882
-0.063,0.973,0.123,-0.84,-1.26,6.72,0.196,-0.56,-0.887
-0.085,0.981,0.113,-0.21,-8.12,7.35,0.197,-0.56,-0.886
-0.126,0.972,0.113,-3.01,-8.54,3.08,0.193,-0.554,-0.881
-0.113,0.976,0.114,-4.76,-4.2,3.78,0.197,-0.559,-0.879
-0.089,1.014,0.092,-6.44,-2.24,6.65,0.202,-0.559,-0.877
-0.089,1.038,0.09,-6.3,-5.88,7.35,0.197,-0.56,-0.879
-0.119,1.07,0.135,-7.84,-7.63,6.23,0.196,-0.556,-0.875
-0.117,1.068,0.145,-3.99,-5.11,3.29,0.195,-0.563,-0.871
-0.1,1.029,0.142,5.6,-5.18,4.69,0.196,-0.563,-0.879
-0.097,0.985,0.17,11.34,-8.12,6.09,0.19,-0.558,-0.877
-0.109,0.956,0.172,8.96,-6.65,4.27,0.193,-0.56,-0.877
-0.131,0.964,0.134,0.98,-4.97,2.52,0.194,-0.564,-0.883
-0.142,0.975,0.166,-5.81,-4.97,1.96,0.193,-0.561,-0.878
-0.131,1.033,0.199,-7.7,-2.38,3.57,0.188,-0.564,-0.885
-0.091,1.053,0.153,3.43,0.98,2.87,0.19,-0.564,-0.879
-0.084,0.979,0.105,8.33,-3.01,1.19,0.19,-0.56,-0.883
-0.119,0.977,0.118,4.69,-6.72,0.98,0.189,-0.561,-0.878
-0.117,0.988,0.129,0.0,-4.27,0.28,0.19,-0.559,-0.884
-0.09,0.978,0.094,-1.12,-0.28,-0.63,0.188,-0.56,-0.885
-0.08,0.959,0.089,1.19,-3.15,0.56,0.186,-0.566,-0.883
-0.11,0.962,0.144,0.14,-7.91,2.66,0.192,-0.561,-0.877
-0.102,1.011,0.139,-3.85,-3.64,3.01,0.19,-0.565,-0.887
-0.093,1.015,0.131,-2.8,-2.87,1.96,0.189,-0.561,-0.881
-0.107,1.001,0.149,0.35,-5.74,2.59,0.195,-0.563,-0.882
-0.117,0.999,0.166,2.31,-6.3,2.1,0.188,-0.564,-0.884
-0.112,1.019,0.203,2.03,-3.92,2.66,0.191,-0.564,-0.889
-0.083,1.037,0.177,3.64,-2.03,2.17,0.189,-0.564,-0.892
-0.085,0.997,0.117,4.2,-1.47,-1.4,0.186,-0.557,-0.889
-0.106,0.95,0.129,3.99,-4.97,-4.27,0.192,-0.559,-0.889
-0.119,0.947,0.169,2.38,-6.16,-2.8,0.189,-0.561,-0.887
-0.109,0.956,0.182,1.61,-3.43,-2.59,0.187,-0.56,-0.881
-0.097,0.916,0.152,2.52,-2.17,-2.03,0.187,-0.566,-0.886
-0.123,0.933,0.129,1.33,-5.39,1.54,0.191,-0.565,-0.889
-0.134,0.965,0.148,1.19,-4.76,3.85,0.186,-0.564,-0.889
-0.107,0.952,0.157,1.4,-0.56,2.94,0.187,-0.563,-0.884
-0.09,0.937,0.12,-1.82,1.26,2.45,0.185,-0.565,-0.882
-0.09,0.972,0.083,-6.16,-1.26,4.06,0.19,-0.561,-0.888
-0.078,0.999,0.104,-6.72,-2.8,1.26,0.191,-0.563,-0.882
-0.077,0.999,0.13,-3.71,-4.2,0.63,0.188,-0.559,-0.887
-0.104,1.011,0.185,-0.91,-6.79,1.19,0.189,-0.56,-0.883
-0.128,1.01,0.208,1.26,-5.67,1.68,0.19,-0.559,-0.883
-0.122,0.989,0.187,0.7,-1.61,0.14,0.191,-0.557,-0.882
-0.089,0.983,0.161,-0.35,-0.28,-0.84,0.185,-0.556,-0.878
-0.082,0.961,0.174,4.2,-2.73,-0.28,0.19,-0.555,-0.88
-0.106,0.935,0.165,4.41,-3.43,0.14,0.19,-0.553,-0.883
-0.113,0.955,0.146,-0.28,-1.82,1.4,0.19,-0.554,-0.882
-0.061,0.955,0.099,-1.54,1.75,0.77,0.186,-0.56,-0.885
-0.06,0.968,0.108,-6.37,-1.61,0.21,0.184,-0.56,-0.886
-0.088,0.999,0.112,-5.32,-5.46,2.1,0.183,-0.56,-0.88
-0.112,1.027,0.129,-5.53,-5.46,2.1,0.184,-0.558,-0.883
-0.114,1.016,0.126,-3.92,-3.15,-1.26,0.187,-0.558,-0.88
-0.103,0.976,0.101,2.45,-3.57,-0.7,0.188,-0.564,-0.88
-0.104,0.951,0.137,3.36,-6.3,1.54,0.186,-0.561,-0.882
-0.126,0.962,0.138,-1.33,-6.37,0.56,0.189,-0.562,-0.877
-0.132,0.991,0.149,-6.58,-3.85,-1.89,0.187,-0.558,-0.881
-0.113,1.021,0.175,-6.44,-1.19,-1.12,0.186,-0.557,-0.876
-0.101,1.024,0.189,2.31,-1.89,0.77,0.181,-0.56,-0.881
-0.137,0.982,0.161,12.25,-4.62,0.42,0.186,-0.562,-0.879
-0.164,0.951,0.143,11.2,-4.13,-0.98,0.185,-0.559,-0.871
-0.164,0.926,0.137,7.77,-1.89,-1.47,0.185,-0.563,-0.882
-0.155,0.927,0.126,1.54,-0.42,-0.49,0.184,-0.562,-0.88
-0.144,0.95,0.123,-2.45,0.35,0.42,0.181,-0.563,-0.881
-0.135,0.969,0.099,-5.25,1.61,0.49,0.184,-0.56,-0.879
-0.118,0.999,0.085,-8.61,1.05,-1.54,0.185,-0.554,-0.879
-0.132,1.029,0.093,-12.18,-1.89,-3.92,0.177,-0.56,-0.878
-0.157,1.054,0.098,-11.27,-4.41,-4.69,0.18,-0.562,-0.868
-0.176,1.046,0.07,-0.84,-6.02,-5.95,0.184,-0.559,-0.871
-0.194,1.002,0.09,3.08,-7.63,-7.84,0.181,-0.559,-0.873
-0.195,1.006,0.12,1.61,-6.93,-10.57,0.184,-0.555,-0.87
-0.185,1.028,0.136,-4.9,-6.44,-13.72,0.185,-0.56,-0.873
-0.175,1.092,0.167,-12.39,-5.95,-14.77,0.187,-0.555,-0.87
-0.169,1.138,0.148,-8.19,-4.62,-15.96,0.191,-0.559,-0.87
-0.148,1.11,0.103,3.36,-8.26,-20.72,0.192,-0.56,-0.875
-0.114,1.054,0.158,19.95,-15.68,-26.18,0.199,-0.559,-0.874
-0.171,0.974,0.2,29.12,-23.45,-28.91,0.197,-0.563,-0.886
-0.241,0.923,0.206,31.92,-29.82,-26.6,0.21,-0.563,-0.887
-0.28,0.913,0.159,29.19,-25.97,-25.69,0.213,-0.563,-0.889
-0.266,0.916,0.021,16.03,-22.19,-29.89,0.216,-0.567,-0.895
-0.229,0.968,0.115,-4.41,-25.76,-43.05,0.222,-0.563,-0.892
-0.236,1.02,0.24,-11.76,-31.71,-45.92,0.226,-0.564,-0.892
-0.263,0.987,0.215,-7.42,-34.3,-47.81,0.235,-0.564,-0.891
-0.255,1.043,0.208,5.32,-33.95,-46.06,0.243,-0.561,-0.895
-0.236,1.242,0.056,27.72,-33.32,-45.71,0.25,-0.561,-0.892
-0.201,1.278,-0.041,80.29,-41.58,-52.99,0.252,-0.562,-0.908
-0.173,0.604,0.083,133.42,-61.11,-38.85,0.263,-0.566,-0.922
-0.277,0.892,0.454,118.79,-63.07,-36.4,0.276,-0.563,-0.946
-0.346,1.121,0.393,135.17,-37.17,-44.66,0.277,-0.563,-0.958
-0.316,0.889,0.35,163.31,-32.06,-52.15,0.287,-0.554,-0.998
-0.176,0.724,0.218,199.85,-22.12,-21.35,0.292,-0.556,-1.014
-0.015,0.66,0.253,219.59,-29.19,-17.01,0.291,-0.549,-1.053
-0.028,0.602,0.346,201.32,-43.96,-24.22,0.295,-0.539,-1.073
-0.133,0.583,0.394,167.79,-54.25,-31.78,0.297,-0.539,-1.086
-0.229,0.498,0.516,129.08,-57.96,-40.88,0.3,-0.526,-1.111
-0.206,0.532,0.623,94.36,-40.67,-36.75,0.3,-0.52,-1.119
-0.102,0.704,0.635,78.47,-18.2,-29.75,0.307,-0.514,-1.13
-0.029,0.796,0.611,106.75,-22.61,-28.35,0.31,-0.509,-1.138
-0.088,0.656,0.665,125.93,-35.63,-24.92,0.311,-0.504,-1.151
-0.159,0.522,0.737,127.12,-39.76,-22.96,0.309,-0.491,-1.171
-0.136,0.486,0.772,115.85,-23.87,-16.66,0.309,-0.483,-1.18
-0.034,0.492,0.814,101.78,-4.62,-14.7,0.311,-0.469,-1.2
0.081,0.496,0.791,90.86,3.85,-15.89,0.309,-0.466,-1.205
0.091,0.482,0.75,90.72,-12.32,-13.51,0.31,-0.459,-1.211
-0.035,0.383,0.882,95.83,-23.87,-4.9,0.307,-0.445,-1.224
-0.009,0.33,0.917,97.16,-9.8,11.13,0.307,-0.436,-1.229
0.082,0.293,0.83,88.06,10.08,17.64,0.306,-0.425,-1.24
0.172,0.251,0.786,73.29,11.62,15.75,0.306,-0.422,-1.247
0.198,0.214,0.815,58.24,0.77,20.51,0.302,-0.418,-1.247
0.207,0.22,0.925,38.99,-3.29,36.33,0.294,-0.414,-1.25
0.265,0.304,0.916,29.05,0.28,39.69,0.29,-0.413,-1.254
0.284,0.347,0.88,26.25,-1.26,38.5,0.29,-0.413,-1.248
0.254,0.366,0.877,33.6,-8.19,41.23,0.281,-0.409,-1.259
0.221,0.362,0.941,46.76,-13.58,48.159,0.27,-0.399,-1.261
0.248,0.319,1.005,61.11,-10.99,57.399,0.264,-0.396,-1.261
0.335,0.276,0.932,60.48,-1.61,56.07,0.259,-0.392,-1.265
0.336,0.251,0.918,52.08,-5.25,53.76,0.252,-0.386,-1.264
0.298,0.239,0.93,43.82,-10.22,55.649,0.245,-0.382,-1.265
0.266,0.246,0.968,33.81,-10.43,59.919,0.231,-0.378,-1.269
0.277,0.268,0.959,23.59,-5.95,63.21,0.232,-0.377,-1.267
0.307,0.286,0.942,12.81,-1.96,62.44,0.222,-0.378,-1.263
0.322,0.32,0.883,0.7,-1.05,58.59,0.215,-0.373,-1.268
0.3,0.346,0.911,-0.56,-4.34,57.889,0.211,-0.374,-1.263
0.266,0.36,0.941,3.43,-6.72,60.69,0.199,-0.374,-1.267
0.245,0.364,0.949,11.62,-6.23,64.19,0.195,-0.368,-1.258
0.25,0.341,0.951,19.74,-4.13,63.84,0.183,-0.375,-1.258
0.244,0.309,0.944,21.77,-3.71,60.27,0.176,-0.372,-1.257
0.201,0.301,0.977,19.39,-6.72,61.11,0.157,-0.372,-1.253
0.139,0.344,1.019,21.0,-4.2,62.3,0.152,-0.364,-1.255
0.17,0.314,1.102,27.86,0.0,60.409,0.145,-0.37,-1.247
0.254,0.222,1.231,41.72,4.97,59.78,0.135,-0.361,-1.251
0.317,0.142,1.447,31.99,3.78,70.0,0.129,-0.357,-1.249
0.273,0.219,1.594,-23.8,4.06,99.19,0.115,-0.356,-1.243
0.146,0.444,1.322,-43.68,4.55,74.83,0.108,-0.36,-1.238
0.142,0.435,1.042,-46.55,9.03,29.54,0.107,-0.365,-1.232
0.171,0.335,0.892,-20.51,18.2,6.3,0.109,-0.37,-1.235
0.159,0.122,0.714,3.43,7.56,14.14,0.112,-0.37,-1.232
0.128,0.031,0.696,2.38,-4.27,52.149,0.107,-0.366,-1.235
0.075,0.121,0.744,-37.24,-5.46,38.36,0.104,-0.37,-1.227
0.02,0.36,0.813,-59.64,-4.41,27.86,0.099,-0.383,-1.228
-0.016,0.497,0.87,-58.52,-8.47,27.44,0.096,-0.384,-1.218
-0.05,0.595,0.889,-38.71,-17.57,31.15,0.091,-0.392,-1.219
-0.079,0.584,0.898,-14.63,-26.6,27.02,0.088,-0.39,-1.219
-0.099,0.501,0.914,-0.56,-31.57,14.84,0.084,-0.388,-1.216
-0.118,0.432,0.915,-0.7,-34.37,7.14,0.078,-0.39,-1.217
-0.134,0.358,0.94,-10.15,-34.51,-2.17,0.072,-0.389,-1.22
-0.14,0.342,0.976,-20.58,-32.13,-8.19,0.072,-0.392,-1.214
-0.14,0.354,1.0,-27.37,-29.68,-11.83,0.067,-0.394,-1.212
-0.137,0.351,1.009,-28.0,-25.55,-13.23,0.068,-0.391,-1.209
-0.136,0.328,0.996,-26.46,-21.77,-13.02,0.07,-0.4,-1.212
-0.145,0.326,1.0,-24.15,-18.27,-10.92,0.07,-0.401,-1.205
-0.172,0.369,0.992,-16.1,-12.32,-5.39,0.063,-0.404,-1.205
-0.173,0.365,0.973,-6.23,-5.46,-0.49,0.069,-0.406,-1.204
-0.153,0.342,0.946,2.03,1.47,5.32,0.066,-0.405,-1.203
-0.122,0.323,0.927,4.34,6.51,9.52,0.069,-0.403,-1.203
-0.1,0.326,0.9,0.49,6.65,11.34,0.067,-0.406,-1.203
-0.095,0.343,0.879,-7.07,0.84,11.83,0.068,-0.405,-1.204
-0.113,0.379,0.875,-11.48,-3.43,10.78,0.064,-0.405,-1.204
-0.133,0.402,0.892,-15.61,-6.02,8.82,0.066,-0.406,-1.2
-0.155,0.431,0.891,-18.34,-7.63,6.86,0.063,-0.412,-1.202
-0.167,0.466,0.89,-17.99,-7.91,5.18,0.063,-0.412,-1.195
-0.175,0.489,0.891,-12.04,-7.56,1.47,0.064,-0.414,-1.192
-0.172,0.485,0.888,-7.14,-7.0,0.07,0.063,-0.416,-1.201
-0.164,0.48,0.894,-2.52,-6.23,-1.54,0.059,-0.417,-1.195
-0.152,0.466,0.9,-0.14,-5.6,-3.57,0.059,-0.414,-1.189
-0.141,0.458,0.899,0.49,-5.53,-4.27,0.061,-0.415,-1.192
-0.132,0.453,0.897,1.96,-5.18,-4.2,0.059,-0.415,-1.194
-0.117,0.438,0.891,4.9,-4.97,-4.34,0.058,-0.417,-1.194
-0.111,0.425,0.891,6.37,-5.46,-4.69,0.061,-0.417,-1.197
-0.113,0.422,0.898,6.51,-6.44,-4.76,0.063,-0.413,-1.192
-0.124,0.421,0.903,6.79,-7.7,-4.83,0.059,-0.413,-1.19
-0.129,0.41,0.904,8.12,-7.14,-4.83,0.062,-0.413,-1.192
-0.136,0.396,0.897,10.22,-6.79,-4.83,0.062,-0.412,-1.198
-0.139,0.386,0.898,10.43,-7.0,-4.83,0.062,-0.411,-1.197
-0.144,0.376,0.902,10.08,-7.63,-4.69,0.061,-0.409,-1.201
-0.152,0.373,0.907,9.31,-8.33,-4.55,0.06,-0.406,-1.197
-0.16,0.371,0.906,7.35,-8.61,-3.85,0.061,-0.41,-1.197
-0.166,0.367,0.906,7.14,-8.4,-3.01,0.057,-0.407,-1.206
-0.166,0.37,0.912,7.35,-7.21,-1.68,0.059,-0.402,-1.201
-0.162,0.378,0.921,7.14,-6.37,-0.7,0.057,-0.401,-1.201
-0.162,0.392,0.921,7.21,-6.02,-0.07,0.059,-0.402,-1.202
-0.156,0.4,0.926,8.26,-5.6,0.7,0.061,-0.401,-1.199
-0.132,0.42,0.923,11.27,-2.38,2.66,0.059,-0.399,-1.205
-0.065,0.458,0.909,19.04,1.12,4.34,0.06,-0.399,-1.208
-0.053,0.468,0.928,27.58,-2.03,5.53,0.063,-0.395,-1.209
-0.058,0.493,0.951,39.06,-4.97,8.12,0.062,-0.397,-1.213
-0.102,0.515,0.971,53.34,-12.25,9.8,0.056,-0.386,-1.218
-0.157,0.504,1.002,70.629,-16.17,10.71,0.06,-0.382,-1.224
-0.197,0.435,1.007,90.02,-10.57,11.48,0.057,-0.368,-1.232
-0.207,0.373,1.007,107.1,5.39,12.39,0.058,-0.363,-1.238
-0.186,0.261,0.996,111.79,12.67,11.13,0.059,-0.352,-1.241
-0.17,0.129,0.983,111.93,17.01,12.46,0.063,-0.336,-1.252
-0.155,0.0,0.989,103.74,18.41,17.71,0.067,-0.326,-1.26
-0.144,-0.107,0.969,82.179,21.07,21.0,0.069,-0.311,-1.272
-0.128,-0.156,0.926,45.71,25.48,21.77,0.071,-0.305,-1.272
-0.107,-0.096,0.853,-17.85,30.31,21.56,0.078,-0.308,-1.271
-0.096,0.035,0.822,-47.81,30.38,24.64,0.078,-0.315,-1.278
-0.084,0.125,0.798,-57.05,28.7,25.83,0.079,-0.317,-1.275
-0.068,0.196,0.777,-51.52,21.42,26.11,0.079,-0.322,-1.273
-0.056,0.238,0.789,-41.09,4.13,20.37,0.083,-0.324,-1.275
-0.097,0.193,0.824,-22.4,-8.54,17.22,0.081,-0.326,-1.271
-0.141,0.192,0.877,-13.16,-19.18,17.22,0.075,-0.329,-1.27
-0.172,0.197,0.894,-4.13,-21.35,13.65,0.076,-0.326,-1.269
-0.179,0.186,0.936,6.44,-24.08,8.54,0.067,-0.331,-1.263
-0.193,0.201,1.01,16.24,-27.09,3.36,0.067,-0.325,-1.275
-0.226,0.208,1.216,20.72,-29.05,-11.27,0.061,-0.324,-1.277
-0.267,0.229,1.289,14.63,-24.71,-21.7,0.058,-0.324,-1.274
-0.267,0.19,1.169,8.33,-15.47,-30.24,0.062,-0.32,-1.275
-0.238,0.099,1.013,3.36,-6.3,-34.51,0.063,-0.322,-1.274
-0.181,0.057,0.937,-3.22,1.82,-33.74,0.063,-0.322,-1.274
-0.097,0.066,0.885,-32.55,7.21,-31.15,0.073,-0.326,-1.27
0.004,0.141,0.909,-28.56,0.56,-27.02,0.075,-0.328,-1.265
-0.031,0.224,0.955,-30.45,-13.37,-22.89,0.073,-0.334,-1.27
-0.108,0.252,0.999,-25.97,-22.33,-19.74,0.07,-0.336,-1.267
-0.153,0.236,0.999,-18.83,-19.95,-15.61,0.072,-0.337,-1.265
-0.152,0.217,0.987,-15.96,-12.04,-13.37,0.068,-0.336,-1.269
-0.138,0.25,0.965,-17.36,-4.62,-13.86,0.069,-0.345,-1.266
-0.136,0.266,0.97,-12.11,-4.62,-11.97,0.072,-0.343,-1.264
-0.156,0.282,0.975,-5.32,-5.11,-8.54,0.072,-0.344,-1.259
-0.174,0.273,0.97,0.35,-5.11,-7.21,0.073,-0.341,-1.262
-0.181,0.255,0.971,4.13,-2.8,-6.93,0.072,-0.343,-1.261
-0.18,0.211,0.966,7.14,-1.19,-7.07,0.075,-0.342,-1.265
-0.178,0.164,0.975,3.22,-2.17,-4.69,0.079,-0.345,-1.257
-0.177,0.188,0.97,-2.03,-2.38,-2.52,0.076,-0.344,-1.258
-0.167,0.215,0.963,-4.13,-2.31,-1.82,0.076,-0.342,-1.262
-0.156,0.219,0.956,-1.33,-2.66,-0.42,0.077,-0.343,-1.267
-0.148,0.215,0.969,1.75,-3.29,1.19,0.078,-0.345,-1.264
-0.142,0.206,0.975,0.91,-2.87,0.63,0.074,-0.343,-1.257
