ax,ay,az,gx,gy,gz,mx,my,mz
-0.997,0.269,0.1,11.27,-7.84,-6.51,-0.192,-0.348,-0.912
-1.003,0.251,0.106,10.99,-5.18,-6.79,-0.19,-0.35,-0.91
-0.996,0.233,0.107,4.27,-1.26,-8.47,-0.195,-0.353,-0.912
-0.982,0.217,0.105,-2.73,-0.21,-10.5,-0.192,-0.35,-0.915
-0.985,0.217,0.111,-10.92,0.56,-12.67,-0.191,-0.356,-0.917
-0.997,0.231,0.123,-17.43,1.05,-14.77,-0.192,-0.355,-0.914
-1.004,0.256,0.136,-19.81,1.96,-15.89,-0.194,-0.357,-0.915
-1.001,0.274,0.132,-14.14,3.5,-16.31,-0.188,-0.362,-0.909
-0.997,0.273,0.132,-6.93,3.64,-15.68,-0.187,-0.36,-0.907
-1.0,0.256,0.144,-0.35,3.08,-15.05,-0.184,-0.365,-0.917
-1.0,0.236,0.155,3.64,3.92,-14.98,-0.187,-0.364,-0.915
-0.988,0.233,0.155,6.79,5.95,-15.54,-0.186,-0.367,-0.919
-0.963,0.222,0.151,7.35,8.54,-16.66,-0.181,-0.369,-0.924
-0.943,0.199,0.145,5.32,12.18,-18.34,-0.186,-0.371,-0.918
-0.965,0.182,0.135,-0.21,11.48,-19.39,-0.184,-0.372,-0.921
-1.009,0.191,0.136,-6.16,10.5,-21.14,-0.176,-0.377,-0.922
-1.044,0.205,0.133,-9.8,13.3,-20.37,-0.179,-0.376,-0.928
-1.049,0.212,0.127,-10.5,17.15,-17.64,-0.176,-0.376,-0.926
-1.027,0.203,0.116,-10.43,19.81,-16.03,-0.18,-0.379,-0.926
-0.986,0.18,0.101,-14.84,21.91,-16.59,-0.175,-0.382,-0.929
-0.977,0.179,0.095,-21.0,21.0,-17.5,-0.173,-0.382,-0.934
-0.984,0.193,0.09,-26.18,18.9,-18.27,-0.171,-0.385,-0.928
-0.992,0.21,0.091,-26.88,17.5,-17.36,-0.173,-0.388,-0.932
-0.997,0.22,0.086,-23.24,16.59,-14.07,-0.168,-0.388,-0.939
-1.0,0.22,0.079,-16.52,12.74,-6.65,-0.168,-0.388,-0.938
-0.99,0.206,0.078,-14.21,11.97,-2.8,-0.17,-0.393,-0.936
-0.949,0.198,0.075,-13.65,13.09,0.63,-0.168,-0.387,-0.942
-0.904,0.192,0.075,-15.05,13.02,2.94,-0.168,-0.388,-0.935
-0.875,0.194,0.079,-17.22,10.85,3.85,-0.174,-0.386,-0.937
-0.861,0.203,0.086,-18.76,8.47,3.71,-0.173,-0.384,-0.934
-0.865,0.223,0.091,-17.36,4.41,4.83,-0.168,-0.382,-0.931
-0.885,0.236,0.092,-13.37,1.33,6.65,-0.17,-0.385,-0.931
-0.913,0.244,0.098,-8.12,-2.1,9.38,-0.171,-0.38,-0.926
-0.938,0.244,0.113,-2.59,-3.71,13.09,-0.173,-0.381,-0.931
-0.937,0.237,0.126,2.24,-3.99,15.82,-0.176,-0.378,-0.925
-0.899,0.22,0.149,4.83,-2.73,16.8,-0.172,-0.371,-0.927
-0.83,0.199,0.169,5.67,1.54,14.21,-0.172,-0.378,-0.93
-0.71,0.153,0.183,-2.45,6.3,10.57,-0.176,-0.377,-0.935
-0.636,0.169,0.149,-10.78,8.47,5.32,-0.181,-0.375,-0.931
-0.614,0.189,0.12,-17.85,5.39,0.42,-0.178,-0.373,-0.932
-0.68,0.218,0.109,-18.48,-2.59,2.24,-0.178,-0.371,-0.924
-0.809,0.266,0.109,-12.46,-13.72,13.93,-0.181,-0.367,-0.922
-1.028,0.294,0.101,5.32,-13.65,23.73,-0.183,-0.366,-0.919
-1.108,0.279,0.103,15.33,-8.82,33.74,-0.182,-0.367,-0.921
-1.093,0.249,0.098,16.17,-3.15,41.16,-0.187,-0.357,-0.925
-1.043,0.237,0.092,7.77,-1.12,43.54,-0.19,-0.353,-0.922
-1.001,0.241,0.115,-6.23,-2.31,40.25,-0.193,-0.347,-0.925
-0.967,0.264,0.125,-20.65,-3.5,28.35,-0.192,-0.345,-0.924
-0.935,0.307,0.136,-31.08,-4.83,19.88,-0.195,-0.343,-0.92
-0.931,0.327,0.14,-28.91,-6.51,13.23,-0.197,-0.345,-0.917
-0.952,0.342,0.135,-22.47,-8.96,7.7,-0.195,-0.342,-0.916
-0.997,0.353,0.125,-14.35,-11.97,3.43,-0.197,-0.339,-0.91
-1.049,0.355,0.121,-5.53,-12.11,1.54,-0.197,-0.34,-0.907
-1.094,0.344,0.097,5.39,-9.17,1.75,-0.197,-0.343,-0.908
-1.121,0.32,0.09,9.52,-8.12,1.75,-0.195,-0.343,-0.903
-1.158,0.289,0.103,8.96,-7.98,1.61,-0.193,-0.337,-0.908
-1.177,0.269,0.131,3.22,-6.86,0.63,-0.194,-0.34,-0.909
-1.159,0.263,0.148,-5.53,-3.5,-1.75,-0.195,-0.331,-0.913
-1.116,0.272,0.149,-14.91,-2.17,-4.97,-0.193,-0.336,-0.908
-1.078,0.285,0.154,-20.16,-3.29,-10.29,-0.196,-0.338,-0.907
-1.043,0.319,0.174,-15.47,-3.99,-12.11,-0.192,-0.34,-0.906
-1.031,0.313,0.194,-3.15,-4.06,-13.16,-0.197,-0.342,-0.902
-1.023,0.275,0.217,15.75,-3.71,-10.36,-0.196,-0.342,-0.902
-1.016,0.212,0.224,31.85,-2.73,-6.79,-0.19,-0.342,-0.914
-1.003,0.12,0.215,42.84,-0.14,-4.69,-0.189,-0.344,-0.909
-1.009,0.084,0.217,41.3,0.77,-2.87,-0.189,-0.344,-0.916
-1.03,0.081,0.223,35.35,-0.28,0.56,-0.19,-0.346,-0.916
-1.044,0.096,0.224,26.32,-0.21,3.29,-0.189,-0.343,-0.922
-1.039,0.126,0.197,16.66,1.47,5.6,-0.189,-0.347,-0.927
-1.021,0.166,0.172,8.54,1.33,7.28,-0.192,-0.346,-0.922
-1.009,0.196,0.163,4.62,0.07,9.17,-0.195,-0.343,-0.925
-1.004,0.217,0.162,3.78,-0.91,11.13,-0.191,-0.342,-0.928
-0.996,0.217,0.152,7.63,0.63,13.02,-0.191,-0.345,-0.924
-0.981,0.209,0.132,10.08,2.52,13.65,-0.191,-0.343,-0.927
-0.962,0.197,0.112,10.01,3.22,12.18,-0.198,-0.337,-0.923
-0.95,0.191,0.102,8.61,3.71,10.92,-0.197,-0.337,-0.931
-0.953,0.194,0.112,6.65,2.87,9.52,-0.193,-0.336,-0.93
-0.957,0.194,0.122,4.2,3.22,7.49,-0.197,-0.336,-0.928
-0.951,0.187,0.125,2.31,3.85,5.18,-0.199,-0.339,-0.931
-0.934,0.184,0.117,-0.91,3.22,3.5,-0.196,-0.336,-0.928
-0.938,0.183,0.108,-3.43,1.05,1.82,-0.195,-0.333,-0.937
-0.956,0.193,0.106,-5.32,-1.47,1.19,-0.194,-0.334,-0.931
-0.973,0.207,0.106,-6.09,-2.94,1.12,-0.2,-0.332,-0.932
-0.987,0.222,0.112,-3.92,-4.48,1.89,-0.198,-0.33,-0.931
-0.999,0.229,0.123,4.55,-6.93,3.5,-0.196,-0.329,-0.931
-0.999,0.209,0.126,10.71,-7.42,4.9,-0.201,-0.332,-0.936
-0.991,0.191,0.126,12.74,-7.35,4.9,-0.197,-0.328,-0.928
-0.989,0.179,0.129,10.57,-7.84,3.22,-0.202,-0.328,-0.931
-0.998,0.18,0.131,6.79,-8.89,1.68,-0.199,-0.327,-0.936
-1.005,0.186,0.137,3.64,-8.33,0.0,-0.2,-0.332,-0.93
-1.002,0.193,0.132,3.15,-6.72,-1.82,-0.201,-0.327,-0.927
-1.005,0.194,0.132,3.64,-6.93,-2.45,-0.199,-0.329,-0.927
-1.009,0.185,0.138,3.99,-6.93,-3.36,-0.202,-0.332,-0.927
-0.997,0.174,0.134,2.94,-5.04,-4.27,-0.201,-0.33,-0.925
-0.968,0.163,0.129,0.49,-3.29,-4.9,-0.201,-0.33,-0.932
-0.948,0.161,0.12,-3.15,-3.36,-6.23,-0.202,-0.332,-0.931
-0.964,0.176,0.113,-4.27,-4.83,-6.58,-0.204,-0.334,-0.93
-0.987,0.183,0.117,-3.08,-5.32,-5.53,-0.199,-0.33,-0.925
-0.999,0.185,0.112,-0.84,-4.76,-4.27,-0.202,-0.335,-0.924
-0.997,0.18,0.11,0.84,-4.41,-2.73,-0.197,-0.34,-0.925
-0.986,0.173,0.105,0.42,-4.34,-1.82,-0.198,-0.335,-0.924
-0.972,0.167,0.117,-0.77,-4.62,-1.54,-0.202,-0.336,-0.922
-0.97,0.176,0.126,-2.17,-5.11,-1.75,-0.201,-0.335,-0.924
-0.969,0.18,0.137,-1.82,-5.46,-2.8,-0.202,-0.333,-0.921
-0.973,0.182,0.137,-0.07,-5.32,-2.52,-0.197,-0.335,-0.92
-0.989,0.179,0.139,2.45,-5.88,-2.17,-0.197,-0.338,-0.915
-1.012,0.171,0.155,3.57,-5.39,-2.38,-0.202,-0.338,-0.919
-1.007,0.158,0.159,2.59,-3.85,-2.59,-0.201,-0.338,-0.92
-0.975,0.154,0.153,1.61,-2.45,-3.36,-0.203,-0.337,-0.919
-0.955,0.155,0.142,0.84,-2.87,-3.57,-0.198,-0.335,-0.923
-0.965,0.16,0.139,0.42,-4.48,-3.43,-0.202,-0.336,-0.922
-0.993,0.167,0.152,-0.07,-5.25,-2.66,-0.201,-0.341,-0.929
-1.004,0.171,0.154,0.77,-2.24,-0.49,-0.196,-0.34,-0.921
-0.989,0.171,0.132,1.33,-0.21,1.12,-0.2,-0.339,-0.921
-0.976,0.175,0.114,0.49,0.63,0.91,-0.196,-0.338,-0.923
-0.97,0.177,0.109,-1.47,0.49,-0.14,-0.201,-0.342,-0.925
-0.973,0.181,0.105,-2.59,-0.07,-0.07,-0.198,-0.342,-0.923
-0.988,0.192,0.101,-2.66,-1.82,0.35,-0.197,-0.341,-0.925
-1.013,0.194,0.095,-1.75,-2.66,0.42,-0.198,-0.34,-0.922
-1.026,0.193,0.102,-1.75,-3.57,1.05,-0.197,-0.342,-0.914
-1.016,0.194,0.107,-2.73,-3.15,1.19,-0.2,-0.343,-0.921
-0.98,0.193,0.11,-3.85,-1.82,0.56,-0.198,-0.34,-0.919
-0.949,0.195,0.111,-4.13,-2.24,0.07,-0.196,-0.341,-0.926
-0.94,0.196,0.116,-3.08,-5.18,-0.84,-0.2,-0.338,-0.924
-0.96,0.195,0.122,-2.24,-6.65,-0.28,-0.201,-0.342,-0.922
-0.982,0.21,0.134,-2.45,-8.05,-0.42,-0.199,-0.343,-0.926
-0.992,0.209,0.153,-0.28,-7.35,-1.19,-0.199,-0.342,-0.918
-0.993,0.208,0.157,1.96,-5.6,0.98,-0.201,-0.34,-0.922
-0.992,0.201,0.154,2.1,-4.76,1.54,-0.2,-0.338,-0.92
-0.994,0.195,0.144,0.49,-4.13,1.4,-0.198,-0.34,-0.921
-0.997,0.205,0.139,-1.47,-3.08,1.26,-0.198,-0.341,-0.918
-0.997,0.212,0.142,-1.89,-2.59,0.7,-0.194,-0.338,-0.918
-0.989,0.212,0.141,-1.89,-1.61,0.56,-0.198,-0.342,-0.92
-0.981,0.208,0.133,-0.77,-1.47,0.07,-0.196,-0.336,-0.921
-0.982,0.206,0.135,0.49,-2.24,-1.12,-0.2,-0.339,-0.925
-0.988,0.194,0.137,0.98,-1.33,-1.75,-0.2,-0.34,-0.923
-0.979,0.185,0.124,1.26,-0.28,-2.1,-0.198,-0.341,-0.923
-0.969,0.179,0.11,1.4,-0.07,-2.73,-0.206,-0.338,-0.925
-0.968,0.176,0.11,1.33,-1.19,-3.5,-0.199,-0.339,-0.928
-0.974,0.175,0.123,2.17,-2.45,-3.08,-0.195,-0.34,-0.924
-0.968,0.173,0.115,3.29,-2.45,-2.24,-0.197,-0.341,-0.921
-0.975,0.171,0.097,3.92,-3.43,-1.26,-0.193,-0.344,-0.921
-1.012,0.181,0.091,3.57,-5.74,-0.56,-0.193,-0.339,-0.924
-1.075,0.198,0.1,2.59,-7.42,0.0,-0.195,-0.34,-0.92
-1.145,0.204,0.111,2.52,-7.21,0.98,-0.196,-0.337,-0.919
-1.188,0.203,0.112,1.12,-4.13,1.96,-0.196,-0.34,-0.917
-1.164,0.185,0.102,-1.68,-1.26,1.12,-0.197,-0.34,-0.921
-1.137,0.18,0.11,-5.25,-0.56,-0.98,-0.2,-0.341,-0.924
-1.143,0.187,0.12,-8.12,-2.52,-3.71,-0.196,-0.335,-0.923
-1.17,0.186,0.134,-9.45,-3.64,-5.18,-0.197,-0.342,-0.921
-1.185,0.179,0.149,-8.47,-2.24,-4.97,-0.195,-0.338,-0.916
-1.145,0.163,0.156,-8.05,0.56,-4.9,-0.194,-0.34,-0.922
-1.126,0.155,0.152,-8.89,0.84,-4.9,-0.198,-0.341,-0.919
-1.13,0.159,0.149,-10.99,0.63,-4.69,-0.191,-0.345,-0.915
-1.137,0.167,0.145,-13.09,2.17,-3.43,-0.19,-0.343,-0.918
-1.134,0.175,0.141,-14.28,3.71,-1.33,-0.194,-0.347,-0.917
-1.115,0.17,0.142,-15.61,5.39,2.03,-0.19,-0.346,-0.912
-1.054,0.163,0.133,-18.13,6.3,2.52,-0.192,-0.339,-0.918
-1.021,0.175,0.127,-22.54,5.46,2.66,-0.192,-0.341,-0.917
-1.016,0.194,0.134,-25.13,2.45,2.38,-0.194,-0.339,-0.913
-1.021,0.208,0.151,-24.5,0.7,3.64,-0.196,-0.337,-0.909
-1.008,0.218,0.161,-20.3,2.31,7.28,-0.195,-0.337,-0.915
-0.957,0.209,0.154,-14.21,3.57,8.82,-0.195,-0.339,-0.911
-0.921,0.201,0.149,-12.6,4.13,8.96,-0.197,-0.333,-0.914
-0.893,0.2,0.151,-13.37,4.48,8.19,-0.201,-0.334,-0.906
-0.88,0.207,0.153,-14.63,4.27,6.65,-0.202,-0.332,-0.909
-0.875,0.213,0.159,-15.12,4.27,5.18,-0.2,-0.339,-0.91
-0.858,0.209,0.17,-13.86,5.32,4.06,-0.203,-0.336,-0.913
-0.816,0.194,0.172,-11.2,9.87,2.38,-0.202,-0.333,-0.914
-0.727,0.175,0.163,-11.13,12.04,0.84,-0.2,-0.334,-0.917
-0.685,0.173,0.148,-12.67,11.83,-1.75,-0.199,-0.336,-0.915
-0.677,0.18,0.132,-13.23,8.4,-3.22,-0.196,-0.338,-0.911
-0.717,0.197,0.125,-11.06,3.64,-2.45,-0.2,-0.336,-0.921
-0.782,0.217,0.131,-6.65,-0.63,0.28,-0.201,-0.334,-0.921
-0.843,0.233,0.135,-1.33,-2.03,3.57,-0.201,-0.336,-0.914
-0.876,0.226,0.127,5.95,-1.12,7.77,-0.2,-0.333,-0.917
-0.867,0.218,0.12,8.12,-1.26,10.5,-0.199,-0.333,-0.918
-0.871,0.22,0.116,6.93,-4.34,10.5,-0.199,-0.329,-0.919
-0.902,0.235,0.122,3.99,-9.66,8.61,-0.202,-0.326,-0.924
-0.942,0.257,0.135,3.29,-14.77,6.93,-0.203,-0.325,-0.917
-0.973,0.297,0.172,11.06,-18.62,5.53,-0.201,-0.328,-0.92
-1.006,0.309,0.217,20.72,-21.56,4.34,-0.206,-0.327,-0.915
-1.006,0.295,0.244,31.01,-22.4,2.59,-0.202,-0.322,-0.918
-0.982,0.263,0.244,39.34,-20.51,-0.28,-0.2,-0.327,-0.911
-0.95,0.224,0.254,45.71,-18.13,-4.34,-0.201,-0.329,-0.912
-0.92,0.192,0.254,48.929,-15.96,-8.19,-0.202,-0.33,-0.916
-0.893,0.109,0.247,51.1,-12.6,-12.95,-0.202,-0.331,-0.919
-0.861,0.062,0.241,50.61,-10.43,-12.74,-0.197,-0.336,-0.923
-0.881,0.043,0.214,46.13,-9.87,-12.88,-0.198,-0.333,-0.927
-0.984,0.069,0.194,39.06,-15.19,-13.79,-0.197,-0.338,-0.924
-1.156,0.115,0.196,33.74,-22.82,-13.02,-0.192,-0.34,-0.919
-1.282,0.134,0.208,33.18,-17.64,-8.75,-0.201,-0.344,-0.917
-1.149,0.118,0.148,33.74,9.45,1.61,-0.194,-0.343,-0.929
-0.979,0.103,0.089,29.33,18.13,3.78,-0.195,-0.346,-0.933
-0.865,0.097,0.053,18.62,16.24,0.35,-0.198,-0.344,-0.938
-0.818,0.115,0.026,4.48,12.25,-3.57,-0.197,-0.343,-0.938
-0.837,0.143,0.011,-8.54,7.49,-5.11,-0.195,-0.346,-0.938
-0.952,0.213,0.025,-17.08,1.12,-5.18,-0.194,-0.35,-0.937
-1.016,0.249,0.039,-14.49,1.82,-2.66,-0.197,-0.348,-0.936
-1.023,0.26,0.017,-7.56,6.09,3.15,-0.195,-0.347,-0.938
-1.0,0.264,-0.012,-1.75,7.49,9.31,-0.195,-0.344,-0.94
-0.983,0.259,-0.027,1.4,4.62,12.88,-0.192,-0.348,-0.936
-0.981,0.259,-0.04,-1.19,0.35,14.35,-0.194,-0.344,-0.94
-0.972,0.27,-0.029,-3.99,-1.54,13.44,-0.193,-0.346,-0.94
-0.958,0.275,-0.01,-5.32,-3.08,11.76,-0.197,-0.342,-0.941
-0.944,0.282,0.022,-4.48,-5.25,9.38,-0.2,-0.338,-0.939
-0.933,0.295,0.046,-2.59,-7.63,5.95,-0.197,-0.34,-0.937
-0.923,0.311,0.052,0.63,-9.31,1.89,-0.197,-0.336,-0.934
-0.922,0.325,0.058,5.46,-11.83,-1.05,-0.2,-0.34,-0.931
-0.964,0.319,0.053,16.1,-13.93,-4.41,-0.198,-0.339,-0.929
-0.964,0.305,0.047,22.89,-15.26,-5.18,-0.2,-0.342,-0.93
-0.992,0.279,0.047,25.9,-15.19,-7.07,-0.198,-0.344,-0.93
-1.016,0.256,0.047,25.76,-13.86,-8.68,-0.195,-0.344,-0.933
-1.035,0.249,0.056,21.63,-13.23,-10.36,-0.197,-0.348,-0.933
-1.036,0.244,0.074,16.73,-11.48,-13.02,-0.194,-0.35,-0.931
-1.017,0.234,0.092,10.64,-9.03,-14.91,-0.19,-0.352,-0.938
-0.976,0.223,0.111,1.89,-7.91,-17.85,-0.188,-0.351,-0.941
-0.968,0.227,0.119,-1.68,-8.61,-20.02,-0.188,-0.359,-0.932
-0.976,0.238,0.133,-2.17,-8.47,-21.21,-0.189,-0.359,-0.94
-0.989,0.245,0.16,1.61,-7.35,-21.35,-0.191,-0.361,-0.932
-1.005,0.256,0.18,11.27,-5.53,-19.74,-0.182,-0.359,-0.935
-1.045,0.252,0.201,23.87,-2.59,-20.37,-0.185,-0.367,-0.934
-1.072,0.243,0.196,24.43,0.42,-22.75,-0.185,-0.364,-0.941
-1.083,0.226,0.193,18.62,4.41,-26.25,-0.183,-0.367,-0.942
-1.069,0.207,0.176,9.45,8.47,-29.61,-0.182,-0.373,-0.939
-1.037,0.189,0.179,0.42,11.41,-31.64,-0.179,-0.382,-0.945
-1.003,0.177,0.189,-15.75,14.49,-33.74,-0.172,-0.385,-0.942
-0.969,0.184,0.197,-25.97,13.86,-35.28,-0.171,-0.387,-0.946
-0.962,0.218,0.199,-31.43,12.46,-35.21,-0.169,-0.391,-0.942
-0.96,0.253,0.195,-32.41,11.62,-33.74,-0.167,-0.393,-0.944
-0.962,0.269,0.179,-28.14,9.94,-31.43,-0.167,-0.395,-0.939
-0.972,0.271,0.164,-20.09,6.58,-27.3,-0.159,-0.397,-0.942
-0.976,0.269,0.154,-2.45,3.64,-17.78,-0.157,-0.398,-0.939
-0.961,0.242,0.158,8.4,3.01,-11.76,-0.155,-0.403,-0.941
-0.944,0.216,0.16,16.03,2.24,-6.44,-0.154,-0.402,-0.946
-0.938,0.196,0.162,19.53,0.56,-3.29,-0.156,-0.406,-0.948
-0.942,0.184,0.165,18.13,-1.12,-0.7,-0.159,-0.404,-0.944
-0.946,0.184,0.173,10.57,-1.33,1.82,-0.156,-0.399,-0.945
-0.942,0.188,0.167,3.22,-0.77,3.29,-0.159,-0.402,-0.945
-0.935,0.2,0.162,-2.1,-0.42,4.62,-0.157,-0.402,-0.951
-0.94,0.216,0.157,-6.37,-1.05,6.02,-0.158,-0.399,-0.949
-0.949,0.231,0.155,-8.47,-1.33,8.19,-0.157,-0.402,-0.951
-0.956,0.241,0.156,-8.82,-1.33,10.85,-0.161,-0.4,-0.944
-0.957,0.245,0.16,-8.26,-1.61,13.65,-0.159,-0.395,-0.946
-0.955,0.248,0.166,-6.79,-3.29,17.99,-0.162,-0.399,-0.941
-0.952,0.252,0.176,-6.37,-4.69,20.09,-0.167,-0.388,-0.947
-0.947,0.259,0.177,-5.67,-5.46,21.98,-0.169,-0.391,-0.943
-0.943,0.265,0.171,-4.62,-6.86,23.38,-0.168,-0.381,-0.943
-0.939,0.272,0.168,-3.01,-8.12,24.29,-0.17,-0.382,-0.949
-0.936,0.277,0.166,-1.05,-9.1,24.78,-0.173,-0.383,-0.946
-0.935,0.282,0.164,0.98,-10.57,24.43,-0.172,-0.381,-0.939
-0.934,0.285,0.163,4.62,-11.27,24.08,-0.171,-0.381,-0.938
-0.938,0.287,0.161,7.21,-12.46,22.82,-0.173,-0.375,-0.939
-0.944,0.287,0.159,9.17,-13.44,21.63,-0.174,-0.374,-0.941
-0.952,0.289,0.159,11.62,-13.72,20.37,-0.174,-0.373,-0.938
-0.961,0.292,0.163,13.3,-14.0,19.18,-0.179,-0.369,-0.94
-0.968,0.288,0.159,13.86,-14.35,17.78,-0.178,-0.37,-0.946
-0.973,0.285,0.144,14.0,-13.72,15.12,-0.183,-0.368,-0.939
-0.985,0.282,0.135,12.11,-13.93,12.88,-0.188,-0.364,-0.934
-0.987,0.285,0.139,10.22,-13.02,10.92,-0.184,-0.363,-0.939
-0.979,0.291,0.139,9.17,-11.69,8.47,-0.187,-0.359,-0.937
-0.97,0.292,0.136,9.24,-11.76,5.67,-0.186,-0.363,-0.937
-0.968,0.288,0.135,10.29,-12.18,3.36,-0.186,-0.363,-0.935
-0.965,0.284,0.133,12.46,-11.34,0.21,-0.184,-0.363,-0.937
-0.952,0.284,0.122,14.42,-10.99,-1.4,-0.186,-0.361,-0.941
-0.954,0.285,0.122,17.08,-11.62,-2.45,-0.185,-0.363,-0.935
-0.963,0.285,0.128,20.58,-12.32,-3.08,-0.184,-0.363,-0.935
-0.967,0.284,0.131,23.94,-12.04,-3.78,-0.185,-0.363,-0.938
-0.97,0.275,0.121,28.28,-10.92,-4.62,-0.188,-0.368,-0.938
-0.984,0.266,0.121,29.47,-11.41,-5.25,-0.181,-0.365,-0.936
-1.0,0.257,0.125,28.84,-10.43,-6.79,-0.187,-0.365,-0.941
-1.005,0.249,0.123,26.6,-8.19,-8.89,-0.188,-0.365,-0.943
-1.001,0.246,0.119,22.75,-5.74,-11.55,-0.184,-0.369,-0.941
-0.994,0.245,0.117,17.29,-3.43,-15.96,-0.186,-0.371,-0.947
-0.988,0.247,0.114,14.49,-2.31,-18.69,-0.186,-0.371,-0.943
-0.987,0.246,0.11,12.6,-1.4,-20.86,-0.185,-0.372,-0.944
-0.991,0.243,0.106,11.34,-0.7,-22.82,-0.181,-0.38,-0.941
-0.996,0.238,0.105,10.64,0.42,-23.87,-0.177,-0.383,-0.948
-0.993,0.233,0.103,9.66,1.61,-24.57,-0.179,-0.388,-0.948
-0.977,0.227,0.101,8.4,3.01,-24.43,-0.176,-0.381,-0.951
-0.964,0.224,0.099,7.98,3.5,-23.52,-0.174,-0.387,-0.958
-0.954,0.222,0.098,7.49,3.01,-22.19,-0.168,-0.388,-0.959
-0.945,0.219,0.094,7.49,2.94,-20.23,-0.17,-0.391,-0.958
-0.937,0.219,0.09,7.35,2.87,-18.13,-0.162,-0.4,-0.958
-0.933,0.221,0.091,8.61,0.84,-14.07,-0.16,-0.397,-0.959
-0.935,0.224,0.096,9.94,-0.28,-10.99,-0.17,-0.396,-0.963
-0.937,0.226,0.096,11.55,-1.33,-7.84,-0.168,-0.399,-0.96
-0.946,0.23,0.099,12.6,-2.24,-5.11,-0.165,-0.399,-0.961
-0.963,0.225,0.098,12.6,-3.64,-3.43,-0.166,-0.397,-0.967
-0.986,0.219,0.1,11.13,-4.55,-1.4,-0.168,-0.403,-0.957
-0.995,0.214,0.099,5.46,-3.22,0.35,-0.169,-0.403,-0.957
-0.981,0.219,0.106,0.77,-2.17,0.63,-0.164,-0.399,-0.958
-0.969,0.231,0.107,-2.66,-1.89,0.84,-0.164,-0.404,-0.963
-0.971,0.24,0.108,-4.62,-2.87,1.26,-0.169,-0.4,-0.969
-0.982,0.247,0.115,-4.9,-3.92,2.38,-0.164,-0.404,-0.965
-0.984,0.25,0.125,-4.06,-3.08,4.97,-0.169,-0.399,-0.962
-0.966,0.249,0.118,-3.29,-2.52,6.58,-0.165,-0.402,-0.966
-0.961,0.247,0.112,-3.08,-3.15,8.33,-0.167,-0.405,-0.96
-0.985,0.246,0.115,-3.22,-4.76,9.94,-0.166,-0.4,-0.965
-1.033,0.26,0.134,-3.29,-6.44,12.67,-0.167,-0.395,-0.964
-1.065,0.273,0.158,-2.31,-6.16,15.82,-0.168,-0.397,-0.963
-1.042,0.271,0.153,0.56,-0.77,20.93,-0.169,-0.394,-0.961
-0.971,0.249,0.139,-0.07,0.77,21.49,-0.173,-0.393,-0.959
-0.956,0.229,0.137,-4.41,0.0,18.83,-0.171,-0.391,-0.96
-0.989,0.227,0.142,-12.11,-2.03,15.82,-0.177,-0.386,-0.959
-1.033,0.244,0.169,-20.09,-2.1,13.23,-0.176,-0.383,-0.963
-1.034,0.264,0.177,-25.55,3.08,11.69,-0.182,-0.385,-0.96
-0.983,0.268,0.159,-27.44,11.13,9.94,-0.179,-0.386,-0.951
-0.92,0.253,0.131,-27.72,10.08,8.75,-0.182,-0.383,-0.961
-0.925,0.247,0.141,-29.61,7.77,7.28,-0.176,-0.384,-0.961
-0.951,0.253,0.156,-32.13,6.86,6.3,-0.181,-0.379,-0.957
-0.957,0.264,0.162,-33.6,8.05,6.51,-0.18,-0.377,-0.952
-0.936,0.271,0.149,-32.27,10.5,7.98,-0.183,-0.376,-0.95
-0.916,0.269,0.13,-29.54,10.43,9.66,-0.185,-0.376,-0.945
-0.929,0.266,0.131,-27.93,6.09,10.22,-0.186,-0.376,-0.946
-0.946,0.274,0.139,-28.0,5.11,11.2,-0.184,-0.373,-0.948
-0.949,0.287,0.145,-27.44,5.53,11.76,-0.185,-0.37,-0.944
-0.936,0.298,0.141,-24.57,5.32,12.25,-0.183,-0.37,-0.941
-0.928,0.303,0.131,-20.16,3.64,13.02,-0.186,-0.368,-0.941
-0.966,0.303,0.134,-13.65,-0.91,13.02,-0.187,-0.37,-0.947
-0.957,0.304,0.147,-10.57,-2.24,12.11,-0.189,-0.362,-0.94
-0.965,0.308,0.157,-8.19,-2.8,11.2,-0.187,-0.364,-0.938
-0.962,0.315,0.158,-5.53,-3.43,9.45,-0.191,-0.363,-0.939
-0.957,0.317,0.158,-2.03,-4.27,7.77,-0.189,-0.365,-0.941
-0.957,0.316,0.157,3.36,-5.74,4.34,-0.191,-0.364,-0.94
-0.96,0.311,0.162,6.51,-6.3,1.89,-0.189,-0.361,-0.942
-0.96,0.305,0.168,9.8,-6.72,-0.63,-0.188,-0.361,-0.944
-0.955,0.294,0.166,12.74,-6.58,-2.8,-0.189,-0.363,-0.939
-0.955,0.28,0.157,14.35,-6.58,-4.48,-0.193,-0.364,-0.941
-0.964,0.268,0.156,14.0,-7.07,-6.3,-0.195,-0.365,-0.944
-0.955,0.257,0.16,11.2,-5.53,-7.7,-0.19,-0.363,-0.938
-0.941,0.258,0.153,9.24,-4.69,-8.96,-0.184,-0.363,-0.936
-0.938,0.26,0.151,8.47,-5.39,-10.71,-0.187,-0.367,-0.942
-0.949,0.263,0.154,8.4,-6.58,-11.62,-0.183,-0.369,-0.943
-0.956,0.265,0.156,9.17,-6.58,-11.76,-0.184,-0.362,-0.937
-0.949,0.263,0.152,10.64,-4.9,-11.48,-0.183,-0.367,-0.936
-0.945,0.261,0.148,13.09,-5.46,-11.69,-0.183,-0.366,-0.945
-0.954,0.258,0.149,14.35,-5.95,-11.9,-0.185,-0.372,-0.944
