ax,ay,az,gx,gy,gz,mx,my,mz
-0.889,0.443,0.166,0.77,-3.85,0.42,-0.143,-0.424,-0.925
-0.891,0.442,0.168,0.98,-3.92,0.35,-0.141,-0.425,-0.927
-0.892,0.439,0.171,1.12,-4.13,0.35,-0.141,-0.426,-0.921
-0.886,0.434,0.166,0.56,-3.36,0.14,-0.14,-0.427,-0.923
-0.889,0.434,0.162,-0.49,-3.71,-0.07,-0.14,-0.43,-0.924
-0.89,0.442,0.17,-0.91,-3.64,0.28,-0.144,-0.425,-0.918
-0.883,0.444,0.168,-0.42,-4.13,0.63,-0.142,-0.428,-0.92
-0.886,0.439,0.167,0.21,-4.34,0.49,-0.147,-0.428,-0.919
-0.889,0.438,0.171,0.63,-4.55,0.77,-0.139,-0.423,-0.921
-0.888,0.437,0.173,0.14,-4.13,0.56,-0.143,-0.421,-0.922
-0.887,0.437,0.171,0.07,-3.85,0.7,-0.142,-0.424,-0.926
-0.889,0.44,0.173,0.0,-4.06,0.63,-0.145,-0.427,-0.92
-0.891,0.438,0.171,-0.21,-3.64,0.49,-0.141,-0.425,-0.924
-0.892,0.439,0.167,-0.56,-3.5,0.49,-0.138,-0.423,-0.921
-0.895,0.44,0.165,-0.56,-3.43,0.21,-0.144,-0.424,-0.918
-0.895,0.441,0.167,-0.63,-3.29,0.35,-0.14,-0.421,-0.917
-0.892,0.439,0.167,-0.63,-3.08,0.42,-0.143,-0.423,-0.916
-0.887,0.436,0.163,-0.49,-3.29,0.42,-0.14,-0.423,-0.917
-0.89,0.436,0.16,-0.7,-3.78,0.42,-0.146,-0.422,-0.924
-0.891,0.437,0.164,-0.98,-3.64,0.56,-0.144,-0.424,-0.923
-0.888,0.437,0.162,-0.84,-3.57,0.7,-0.142,-0.422,-0.922
-0.89,0.434,0.159,-0.56,-3.78,0.63,-0.145,-0.421,-0.925
-0.892,0.433,0.159,-0.63,-4.06,0.98,-0.14,-0.427,-0.921
-0.893,0.434,0.161,-1.12,-3.92,0.91,-0.145,-0.424,-0.923
-0.892,0.439,0.16,-0.91,-4.2,1.54,-0.143,-0.424,-0.923
-0.894,0.439,0.16,-0.42,-4.48,1.75,-0.148,-0.424,-0.92
-0.894,0.438,0.159,0.14,-4.69,1.89,-0.146,-0.42,-0.92
-0.895,0.437,0.16,0.0,-4.62,1.75,-0.142,-0.424,-0.922
-0.895,0.438,0.161,0.07,-4.83,1.54,-0.146,-0.422,-0.919
-0.896,0.436,0.159,0.28,-4.83,1.61,-0.145,-0.425,-0.915
-0.895,0.438,0.16,0.42,-4.76,2.03,-0.152,-0.424,-0.928
-0.893,0.438,0.16,0.7,-5.46,2.1,-0.143,-0.425,-0.92
-0.891,0.44,0.168,1.47,-5.81,2.45,-0.144,-0.421,-0.916
-0.887,0.442,0.175,2.31,-6.3,2.8,-0.143,-0.42,-0.916
-0.878,0.444,0.198,3.85,-6.79,3.29,-0.143,-0.422,-0.923
-0.868,0.451,0.218,6.16,-7.7,4.34,-0.145,-0.417,-0.913
-0.871,0.447,0.227,9.38,-7.91,5.11,-0.145,-0.416,-0.915
-0.874,0.437,0.255,11.9,-7.84,6.86,-0.144,-0.424,-0.918
-0.865,0.435,0.289,13.58,-7.35,11.41,-0.146,-0.418,-0.923
-0.81,0.403,0.333,15.05,-6.51,15.75,-0.147,-0.415,-0.923
-0.813,0.396,0.378,18.2,-7.28,22.61,-0.152,-0.41,-0.927
-0.851,0.387,0.423,26.46,-8.54,33.67,-0.147,-0.407,-0.921
-0.893,0.396,0.491,30.45,-7.07,43.33,-0.156,-0.402,-0.919
-0.92,0.458,0.517,31.29,-3.15,50.26,-0.157,-0.403,-0.919
-0.938,0.517,0.5,34.44,2.24,55.51,-0.157,-0.401,-0.926
-0.941,0.531,0.464,39.62,7.77,53.34,-0.168,-0.393,-0.936
-0.92,0.521,0.446,41.16,15.82,47.53,-0.166,-0.389,-0.936
-0.906,0.495,0.449,35.7,21.49,39.13,-0.173,-0.386,-0.952
-0.891,0.473,0.419,21.98,28.84,28.14,-0.173,-0.383,-0.95
-0.867,0.488,0.388,4.69,35.91,16.38,-0.176,-0.379,-0.959
-0.821,0.547,0.364,-6.72,42.0,5.39,-0.181,-0.385,-0.956
-0.769,0.612,0.347,-5.32,45.01,-4.62,-0.178,-0.383,-0.96
-0.752,0.639,0.316,7.42,45.71,-18.27,-0.179,-0.382,-0.977
-0.793,0.619,0.304,32.48,47.04,-26.74,-0.174,-0.387,-0.975
-0.782,0.577,0.301,40.11,49.56,-34.44,-0.17,-0.392,-0.982
-0.796,0.55,0.312,36.19,51.87,-43.4,-0.165,-0.399,-0.996
-0.837,0.538,0.319,24.22,55.44,-53.41,-0.165,-0.405,-1.0
-0.849,0.581,0.308,9.45,60.62,-62.79,-0.156,-0.41,-1.013
-0.834,0.633,0.298,1.75,64.47,-72.45,-0.148,-0.417,-1.015
-0.842,0.671,0.303,2.52,67.48,-89.88,-0.143,-0.424,-1.027
-0.825,0.736,0.358,7.28,67.83,-100.87,-0.132,-0.436,-1.033
-0.815,0.799,0.4,17.57,68.669,-113.75,-0.117,-0.446,-1.037
-0.851,0.79,0.409,30.45,70.07,-130.9,-0.102,-0.464,-1.05
-0.907,0.758,0.396,37.87,73.29,-147.071,-0.09,-0.471,-1.058
-0.946,0.753,0.375,34.16,78.05,-162.33,-0.065,-0.489,-1.074
-0.961,0.812,0.412,23.59,82.53,-179.69,-0.047,-0.498,-1.079
-0.966,0.884,0.504,13.16,85.12,-205.52,-0.032,-0.506,-1.087
-1.027,0.945,0.495,12.74,87.78,-224.7,0.015,-0.527,-1.092
-1.048,0.993,0.53,16.94,91.28,-240.17,0.033,-0.537,-1.101
-1.047,1.027,0.504,26.95,97.37,-253.12,0.062,-0.547,-1.105
-1.049,0.989,0.467,37.87,101.92,-264.6,0.111,-0.556,-1.113
-1.007,0.898,0.468,50.12,106.75,-270.06,0.137,-0.559,-1.115
-0.926,0.843,0.489,48.72,110.6,-272.86,0.199,-0.558,-1.125
-0.823,0.801,0.469,36.19,113.05,-277.41,0.23,-0.558,-1.133
-0.722,0.793,0.459,21.56,110.53,-279.37,0.258,-0.552,-1.133
-0.563,0.8,0.414,25.34,106.54,-280.071,0.309,-0.539,-1.129
-0.478,0.763,0.395,38.36,102.06,-275.31,0.34,-0.535,-1.125
-0.398,0.615,0.392,56.21,97.02,-267.821,0.388,-0.508,-1.132
-0.327,0.465,0.374,68.25,93.1,-255.64,0.412,-0.495,-1.135
-0.251,0.383,0.38,69.72,90.58,-242.34,0.433,-0.479,-1.128
-0.171,0.358,0.356,62.159,88.62,-231.14,0.47,-0.445,-1.13
-0.06,0.276,0.375,63.28,82.74,-216.79,0.481,-0.434,-1.128
0.057,0.194,0.388,60.55,73.57,-191.1,0.512,-0.406,-1.122
0.206,0.062,0.421,53.409,66.22,-176.33,0.527,-0.39,-1.118
0.294,0.004,0.46,43.26,56.909,-158.48,0.533,-0.339,-1.116
0.349,0.008,0.504,32.69,50.82,-143.15,0.548,-0.348,-1.111
0.398,0.0,0.518,21.14,44.66,-131.18,0.56,-0.34,-1.111
0.467,0.001,0.486,20.16,38.99,-116.2,0.565,-0.316,-1.104
0.539,-0.023,0.491,24.29,31.5,-101.57,0.568,-0.311,-1.101
0.601,-0.083,0.505,21.7,24.92,-73.64,0.574,-0.299,-1.097
0.644,-0.101,0.572,13.72,17.22,-76.09,0.575,-0.281,-1.098
0.686,-0.074,0.606,-8.47,12.67,-65.45,0.575,-0.272,-1.094
0.748,-0.062,0.609,-15.12,7.56,-55.58,0.58,-0.27,-1.091
0.799,-0.026,0.625,-20.09,3.92,-47.46,0.582,-0.266,-1.089
0.825,0.018,0.678,-20.93,0.91,-43.19,0.583,-0.261,-1.092
0.833,0.036,0.716,-18.34,-1.19,-37.94,0.583,-0.254,-1.085
0.85,0.081,0.744,-12.6,-0.56,-28.98,0.586,-0.254,-1.087
0.878,0.093,0.739,-8.26,1.19,-25.55,0.58,-0.25,-1.09
0.884,0.091,0.765,-3.85,3.15,-21.98,0.586,-0.249,-1.088
0.846,0.099,0.813,1.61,6.23,-20.3,0.583,-0.245,-1.091
0.816,0.144,0.824,6.51,9.8,-17.92,0.589,-0.242,-1.086
0.859,0.176,0.762,11.97,13.37,-16.1,0.589,-0.234,-1.083
0.899,0.12,0.708,21.14,14.14,-13.37,0.591,-0.234,-1.078
0.88,0.056,0.695,18.69,13.79,-10.64,0.591,-0.233,-1.075
0.867,0.07,0.68,1.82,14.35,-10.5,0.591,-0.228,-1.085
0.898,0.175,0.663,-10.64,14.77,-11.2,0.594,-0.229,-1.076
0.878,0.202,0.65,-2.17,10.71,-11.2,0.597,-0.227,-1.074
0.839,0.128,0.676,13.93,7.14,-9.17,0.596,-0.23,-1.073
0.811,0.036,0.7,18.97,6.44,-6.51,0.598,-0.225,-1.072
0.801,0.008,0.712,6.23,8.54,-5.18,0.593,-0.226,-1.068
0.796,0.042,0.708,-11.27,10.92,-4.76,0.597,-0.224,-1.071
0.821,0.113,0.673,-19.04,12.67,-3.57,0.594,-0.219,-1.068
0.853,0.156,0.644,-2.1,10.22,-0.49,0.597,-0.223,-1.065
0.838,0.08,0.656,12.39,5.88,-0.28,0.597,-0.224,-1.07
0.8,0.032,0.653,14.28,3.85,0.84,0.596,-0.222,-1.067
0.79,0.01,0.626,5.67,3.71,1.19,0.596,-0.22,-1.067
0.8,0.027,0.597,-4.83,2.66,2.45,0.6,-0.222,-1.064
0.795,0.084,0.588,-8.96,0.21,3.99,0.599,-0.221,-1.063
0.781,0.147,0.587,-6.79,-2.24,4.9,0.597,-0.226,-1.064
0.789,0.143,0.601,7.14,-4.41,5.6,0.596,-0.227,-1.067
0.781,0.103,0.593,9.66,-5.11,5.53,0.593,-0.227,-1.066
0.773,0.088,0.575,5.53,-5.39,4.48,0.599,-0.231,-1.062
0.771,0.083,0.568,0.42,-5.32,3.92,0.596,-0.226,-1.067
0.774,0.092,0.564,-2.8,-4.97,4.2,0.595,-0.231,-1.066
0.776,0.115,0.566,-4.48,-4.69,4.62,0.596,-0.231,-1.065
0.774,0.151,0.566,-5.32,-4.76,4.97,0.599,-0.231,-1.06
0.783,0.152,0.565,-5.46,-4.97,3.92,0.598,-0.232,-1.068
0.797,0.132,0.582,-4.06,-5.04,2.45,0.599,-0.234,-1.064
0.778,0.11,0.599,-2.73,-5.32,2.24,0.6,-0.236,-1.066
0.769,0.091,0.606,-1.33,-4.06,2.24,0.601,-0.237,-1.065
0.778,0.072,0.604,-0.98,-3.08,2.66,0.6,-0.231,-1.068
0.781,0.078,0.594,-1.68,-2.45,2.8,0.598,-0.238,-1.072
0.772,0.098,0.584,-2.52,-2.1,2.03,0.598,-0.237,-1.067
0.772,0.111,0.583,-1.82,-1.4,1.75,0.599,-0.237,-1.07
0.776,0.114,0.579,-1.96,-1.33,1.61,0.598,-0.235,-1.068
0.783,0.11,0.574,-1.47,-1.26,1.12,0.595,-0.24,-1.065
0.784,0.12,0.575,-2.8,-0.91,0.28,0.597,-0.237,-1.064
0.766,0.116,0.58,-3.08,-0.91,0.21,0.602,-0.238,-1.071
0.76,0.126,0.579,-3.22,-0.84,0.35,0.595,-0.237,-1.065
0.762,0.127,0.577,-0.49,-0.28,0.98,0.595,-0.233,-1.068
0.769,0.113,0.565,1.75,0.0,0.91,0.592,-0.234,-1.069
0.776,0.099,0.555,0.98,0.07,0.98,0.594,-0.236,-1.062
0.782,0.105,0.551,-2.8,-0.21,1.05,0.593,-0.236,-1.065
0.78,0.125,0.562,-6.3,-1.54,2.03,0.597,-0.238,-1.062
0.775,0.137,0.577,-6.23,-3.15,2.45,0.596,-0.241,-1.062
0.78,0.136,0.587,-4.55,-3.22,2.52,0.601,-0.239,-1.064
0.78,0.132,0.596,-3.29,-3.85,1.96,0.599,-0.24,-1.067
0.775,0.129,0.602,-2.1,-4.27,1.61,0.596,-0.239,-1.063
0.778,0.116,0.603,-1.26,-3.92,0.49,0.6,-0.24,-1.063
0.78,0.12,0.602,-1.12,-3.57,0.7,0.597,-0.244,-1.062
0.781,0.134,0.598,-1.47,-3.08,0.77,0.599,-0.238,-1.068
0.779,0.161,0.586,-0.98,-3.5,0.7,0.601,-0.238,-1.064
0.777,0.16,0.586,0.35,-3.78,0.56,0.6,-0.241,-1.07
0.773,0.144,0.592,2.03,-4.06,0.28,0.602,-0.239,-1.063
0.772,0.133,0.594,4.06,-3.71,0.07,0.6,-0.241,-1.059
0.771,0.123,0.594,5.32,-3.5,0.0,0.6,-0.24,-1.064
0.771,0.112,0.591,3.92,-3.01,-0.21,0.602,-0.239,-1.063
0.773,0.119,0.588,-0.49,-2.66,0.35,0.597,-0.24,-1.068
0.766,0.144,0.586,-1.33,-2.45,0.21,0.594,-0.242,-1.064
0.761,0.144,0.582,0.0,-1.82,0.91,0.593,-0.239,-1.066
0.764,0.129,0.581,1.54,-1.54,1.82,0.597,-0.242,-1.066
0.77,0.116,0.574,0.98,-1.19,2.1,0.6,-0.242,-1.064
0.77,0.116,0.57,-0.91,-1.54,2.45,0.6,-0.241,-1.06
0.774,0.123,0.57,-2.24,-1.05,2.52,0.596,-0.245,-1.058
0.775,0.132,0.579,-2.87,-1.26,2.59,0.596,-0.244,-1.059
0.771,0.141,0.589,-1.61,-0.7,2.87,0.598,-0.241,-1.056
0.773,0.144,0.592,-0.7,0.21,2.87,0.597,-0.241,-1.052
0.778,0.14,0.587,-0.56,0.49,2.66,0.597,-0.241,-1.062
0.786,0.133,0.573,-0.49,0.84,1.68,0.6,-0.241,-1.061
0.792,0.13,0.568,0.56,0.63,0.98,0.598,-0.244,-1.055
0.8,0.132,0.566,0.42,0.63,0.49,0.597,-0.244,-1.058
0.79,0.141,0.57,-0.14,-0.49,0.35,0.598,-0.247,-1.055
0.79,0.142,0.574,-1.33,-0.35,-0.77,0.599,-0.244,-1.056
0.789,0.149,0.577,-2.45,-0.35,-1.19,0.598,-0.243,-1.057
0.788,0.151,0.568,-1.54,-0.84,-1.4,0.605,-0.246,-1.056
0.786,0.135,0.567,0.7,-0.84,-1.47,0.597,-0.246,-1.057
0.781,0.122,0.573,1.33,-1.54,-1.19,0.598,-0.244,-1.055
0.776,0.124,0.581,0.91,-2.03,-0.42,0.601,-0.244,-1.055
0.778,0.128,0.582,-0.7,-1.82,-0.21,0.597,-0.241,-1.059
0.789,0.127,0.574,-1.75,-1.33,-0.42,0.598,-0.246,-1.061
0.796,0.134,0.569,-1.89,-1.33,-0.56,0.593,-0.249,-1.058
0.793,0.14,0.574,-1.26,-2.24,-0.28,0.597,-0.248,-1.053
0.796,0.139,0.586,0.0,-2.66,0.77,0.599,-0.247,-1.052
0.791,0.14,0.59,-0.14,-2.87,1.47,0.599,-0.248,-1.052
0.794,0.133,0.591,-0.14,-2.87,1.96,0.597,-0.25,-1.056
0.803,0.125,0.592,-1.54,-3.01,2.59,0.6,-0.245,-1.056
0.809,0.127,0.601,-3.29,-3.22,3.64,0.597,-0.243,-1.054
0.822,0.143,0.61,-4.2,-2.87,4.83,0.596,-0.246,-1.054
0.829,0.159,0.613,-4.34,-3.15,5.67,0.601,-0.248,-1.054
0.838,0.168,0.615,-3.36,-3.71,6.09,0.601,-0.25,-1.055
0.847,0.159,0.62,-0.56,-4.27,5.46,0.597,-0.254,-1.06
0.851,0.142,0.63,-0.63,-4.55,5.25,0.597,-0.254,-1.06
0.857,0.148,0.626,-2.17,-3.71,4.41,0.602,-0.255,-1.06
0.852,0.161,0.622,-3.08,-3.64,4.27,0.6,-0.252,-1.068
0.849,0.174,0.613,-2.03,-3.22,4.27,0.595,-0.25,-1.063
0.848,0.166,0.609,0.21,-3.64,4.48,0.597,-0.248,-1.061
0.841,0.146,0.608,2.17,-3.5,4.55,0.6,-0.252,-1.057
0.834,0.13,0.605,0.77,-4.06,4.9,0.598,-0.253,-1.064
0.828,0.126,0.6,-0.98,-4.06,6.37,0.601,-0.255,-1.056
0.806,0.124,0.599,-3.71,-4.2,8.05,0.595,-0.26,-1.06
0.803,0.116,0.59,-5.11,-3.92,10.36,0.596,-0.258,-1.054
0.806,0.105,0.581,-6.3,-3.78,13.37,0.599,-0.259,-1.054
0.804,0.074,0.571,-6.93,-4.13,16.59,0.594,-0.266,-1.061
0.786,0.04,0.561,-8.26,-4.34,21.63,0.597,-0.266,-1.058
0.764,0.008,0.545,-12.11,-5.04,28.35,0.599,-0.269,-1.054
0.757,-0.02,0.522,-18.76,-5.53,36.12,0.595,-0.269,-1.056
0.774,-0.019,0.526,-26.32,-6.44,49.98,0.592,-0.284,-1.06
0.756,0.025,0.545,-41.16,-9.45,58.31,0.593,-0.289,-1.054
0.688,0.161,0.552,-50.82,-10.78,65.24,0.588,-0.294,-1.051
0.714,0.215,0.548,-48.44,-10.71,73.29,0.584,-0.313,-1.053
0.731,0.259,0.554,-36.12,-11.69,81.129,0.58,-0.32,-1.052
0.709,0.221,0.553,-23.59,-13.72,88.27,0.579,-0.323,-1.051
0.69,0.209,0.538,-22.96,-14.07,96.95,0.574,-0.342,-1.05
0.679,0.229,0.511,-35.77,-15.89,102.34,0.569,-0.349,-1.047
0.639,0.312,0.503,-42.77,-19.67,111.51,0.56,-0.369,-1.048
0.529,0.42,0.518,-37.87,-22.61,118.58,0.552,-0.378,-1.05
0.512,0.457,0.545,-29.26,-24.71,128.17,0.55,-0.392,-1.049
0.504,0.517,0.55,-28.0,-27.09,135.1,0.532,-0.414,-1.056
0.453,0.578,0.533,-33.25,-30.17,137.41,0.528,-0.425,-1.059
0.417,0.58,0.47,-28.56,-35.07,140.42,0.512,-0.444,-1.056
0.397,0.616,0.469,-22.96,-40.67,147.84,0.504,-0.453,-1.057
0.28,0.688,0.551,-32.41,-47.95,145.95,0.482,-0.476,-1.056
0.17,0.747,0.573,-41.58,-48.09,148.68,0.473,-0.483,-1.057
0.13,0.834,0.587,-46.9,-46.13,154.28,0.46,-0.497,-1.058
0.166,0.952,0.56,-49.56,-42.77,155.54,0.433,-0.514,-1.058
0.174,1.056,0.551,-41.93,-41.37,149.52,0.426,-0.523,-1.058
0.119,1.043,0.544,-23.03,-41.58,141.19,0.396,-0.536,-1.056
0.058,0.912,0.517,-9.31,-42.63,138.67,0.385,-0.541,-1.051
0.017,0.8,0.471,-21.21,-42.84,142.45,0.375,-0.545,-1.057
-0.061,0.879,0.493,-33.46,-44.87,145.18,0.349,-0.555,-1.053
-0.142,0.983,0.574,-25.55,-46.41,144.13,0.336,-0.562,-1.054
-0.198,1.032,0.519,-2.45,-44.31,144.13,0.305,-0.567,-1.057
-0.226,0.957,0.424,14.0,-45.92,143.64,0.293,-0.571,-1.056
-0.254,0.799,0.354,6.65,-50.96,141.12,0.271,-0.574,-1.062
-0.287,0.713,0.394,-13.02,-56.0,142.38,0.251,-0.577,-1.061
-0.335,0.787,0.501,-29.54,-59.78,145.32,0.231,-0.582,-1.054
-0.392,0.903,0.512,-26.74,-58.73,139.79,0.217,-0.582,-1.052
-0.423,0.915,0.444,-8.12,-58.73,139.93,0.191,-0.585,-1.056
-0.457,0.743,0.315,-2.1,-61.46,142.73,0.173,-0.578,-1.057
-0.538,0.631,0.273,-20.86,-63.07,144.27,0.145,-0.575,-1.052
-0.601,0.636,0.294,-49.91,-62.65,144.13,0.128,-0.576,-1.048
-0.617,0.715,0.316,-76.58,-59.57,139.72,0.119,-0.573,-1.039
-0.597,0.789,0.329,-78.89,-57.82,136.36,0.091,-0.572,-1.021
-0.595,0.809,0.307,-56.0,-58.03,138.32,0.077,-0.568,-1.011
-0.587,0.693,0.211,-10.64,-59.99,141.26,0.046,-0.557,-0.999
-0.641,0.611,0.211,-1.68,-62.02,141.61,0.035,-0.551,-1.006
-0.682,0.565,0.238,-13.79,-61.11,138.6,0.023,-0.55,-0.996
-0.719,0.579,0.276,-38.36,-56.84,131.32,-0.004,-0.539,-0.994
-0.73,0.653,0.296,-56.42,-50.26,119.98,-0.015,-0.532,-0.985
-0.716,0.722,0.246,-61.39,-42.07,108.5,-0.034,-0.521,-0.967
-0.697,0.734,0.177,-51.45,-37.59,98.77,-0.042,-0.517,-0.963
-0.663,0.71,0.215,-23.45,-38.78,95.76,-0.06,-0.504,-0.956
-0.651,0.703,0.315,-2.87,-41.51,92.679,-0.064,-0.5,-0.947
-0.676,0.703,0.337,18.97,-40.6,87.08,-0.071,-0.492,-0.95
-0.716,0.656,0.263,36.12,-38.08,79.59,-0.087,-0.484,-0.95
-0.759,0.567,0.21,37.17,-37.66,75.74,-0.092,-0.485,-0.945
-0.802,0.519,0.191,22.4,-37.66,73.78,-0.096,-0.472,-0.948
-0.835,0.519,0.19,-1.89,-36.47,69.72,-0.111,-0.466,-0.944
-0.829,0.582,0.243,-23.17,-36.19,63.77,-0.116,-0.461,-0.94
-0.791,0.674,0.276,-26.39,-35.63,58.24,-0.122,-0.451,-0.93
-0.808,0.735,0.32,3.99,-35.91,49.7,-0.119,-0.448,-0.928
-0.834,0.646,0.269,26.74,-33.88,42.63,-0.124,-0.445,-0.931
-0.858,0.559,0.244,35.07,-31.29,39.97,-0.13,-0.439,-0.927
-0.883,0.518,0.248,25.83,-28.07,38.5,-0.133,-0.434,-0.924
-0.895,0.503,0.256,5.81,-23.17,35.91,-0.136,-0.432,-0.925
-0.891,0.514,0.251,-22.26,-15.82,30.45,-0.133,-0.427,-0.928
-0.869,0.57,0.239,-32.2,-12.11,26.67,-0.136,-0.426,-0.917
-0.865,0.581,0.243,-34.37,-9.52,22.19,-0.142,-0.424,-0.92
-0.868,0.554,0.25,-33.39,-6.93,17.92,-0.146,-0.421,-0.915
-0.877,0.532,0.268,-34.72,-2.38,13.09,-0.147,-0.41,-0.907
-0.875,0.522,0.262,-41.51,3.57,7.63,-0.142,-0.413,-0.915
-0.863,0.515,0.229,-50.19,9.87,4.06,-0.147,-0.406,-0.906
-0.852,0.51,0.209,-57.47,14.21,1.33,-0.148,-0.404,-0.903
-0.848,0.532,0.191,-61.81,16.66,-0.07,-0.152,-0.403,-0.896
-0.846,0.545,0.192,-58.94,16.03,-1.33,-0.151,-0.4,-0.895
-0.848,0.556,0.186,-51.17,14.28,-2.1,-0.149,-0.401,-0.894
-0.858,0.562,0.182,-39.69,11.62,-2.52,-0.152,-0.4,-0.892
-0.865,0.56,0.166,-28.14,9.45,-3.15,-0.153,-0.401,-0.891
-0.871,0.546,0.147,-17.36,7.21,-3.99,-0.155,-0.403,-0.885
-0.883,0.528,0.129,-8.82,4.69,-4.41,-0.154,-0.4,-0.886
-0.905,0.518,0.13,-2.52,2.87,-4.2,-0.153,-0.404,-0.892
-0.93,0.511,0.145,2.73,0.91,-3.36,-0.147,-0.4,-0.885
-0.92,0.503,0.152,3.29,0.63,-3.01,-0.149,-0.401,-0.888
-0.9,0.499,0.152,2.45,0.42,-3.71,-0.153,-0.403,-0.894
-0.885,0.498,0.157,1.68,0.14,-4.76,-0.149,-0.406,-0.896
-0.875,0.499,0.162,1.47,-0.35,-6.16,-0.149,-0.403,-0.893
-0.873,0.498,0.157,1.68,-0.56,-8.47,-0.149,-0.405,-0.888
-0.872,0.487,0.153,2.94,-0.7,-10.29,-0.15,-0.402,-0.892
-0.87,0.477,0.145,4.55,-0.49,-11.34,-0.151,-0.404,-0.896
-0.869,0.469,0.142,5.6,-0.49,-11.9,-0.15,-0.401,-0.893
-0.885,0.464,0.137,4.97,-1.12,-12.25,-0.145,-0.406,-0.89
-0.887,0.462,0.141,4.13,-0.49,-11.9,-0.143,-0.405,-0.899
-0.881,0.461,0.143,3.15,-0.28,-11.48,-0.144,-0.41,-0.897
-0.881,0.457,0.145,2.24,-0.28,-11.48,-0.143,-0.411,-0.896
-0.887,0.453,0.144,0.63,-0.49,-11.62,-0.142,-0.41,-0.894
-0.886,0.457,0.146,-0.91,-0.21,-11.41,-0.14,-0.412,-0.9
-0.877,0.458,0.146,-1.33,0.28,-10.99,-0.14,-0.412,-0.902
-0.868,0.454,0.143,-0.49,-0.63,-10.99,-0.145,-0.421,-0.893
-0.873,0.45,0.139,0.21,-0.91,-10.5,-0.138,-0.418,-0.896
-0.875,0.448,0.139,0.49,-1.4,-9.87,-0.137,-0.419,-0.897
-0.875,0.45,0.141,0.49,-2.03,-8.75,-0.134,-0.424,-0.896
-0.875,0.453,0.143,1.19,-2.73,-7.49,-0.132,-0.418,-0.897
-0.874,0.455,0.145,2.03,-3.36,-5.11,-0.133,-0.422,-0.892
-0.873,0.453,0.144,3.99,-4.06,-4.48,-0.131,-0.422,-0.898
-0.876,0.446,0.146,4.41,-4.06,-3.01,-0.133,-0.423,-0.9
-0.879,0.446,0.147,3.22,-3.85,-2.38,-0.134,-0.425,-0.896
-0.875,0.445,0.146,1.61,-3.43,-1.82,-0.134,-0.425,-0.898
-0.877,0.449,0.143,0.07,-3.29,-1.19,-0.135,-0.427,-0.894
-0.879,0.455,0.142,-1.12,-3.22,-0.49,-0.136,-0.425,-0.896
-0.881,0.462,0.144,-1.54,-3.08,0.49,-0.135,-0.428,-0.899
-0.877,0.468,0.14,-1.47,-2.94,1.47,-0.137,-0.423,-0.894
-0.876,0.465,0.137,-1.05,-2.8,2.24,-0.137,-0.425,-0.889
-0.88,0.466,0.137,-1.12,-3.01,2.31,-0.137,-0.425,-0.893
-0.881,0.468,0.139,-1.75,-3.15,2.45,-0.134,-0.432,-0.893
-0.884,0.474,0.139,-2.1,-3.43,2.52,-0.14,-0.425,-0.892
-0.885,0.478,0.142,-1.96,-3.64,2.66,-0.135,-0.422,-0.896
-0.882,0.481,0.142,-1.4,-3.57,2.45,-0.137,-0.422,-0.893
-0.884,0.478,0.135,-0.77,-3.64,1.75,-0.134,-0.423,-0.892
-0.889,0.475,0.133,-0.91,-3.71,1.19,-0.135,-0.428,-0.89
-0.887,0.475,0.137,-1.61,-3.57,0.84,-0.131,-0.422,-0.9
-0.883,0.48,0.139,-1.47,-4.13,0.91,-0.133,-0.421,-0.895
-0.885,0.481,0.141,-0.7,-4.2,1.12,-0.136,-0.423,-0.895
-0.883,0.481,0.141,-0.21,-4.2,0.91,-0.136,-0.424,-0.903
-0.876,0.479,0.138,0.56,-4.2,0.91,-0.136,-0.42,-0.893
-0.875,0.476,0.139,0.91,-3.99,0.28,-0.132,-0.425,-0.903
-0.879,0.472,0.139,1.05,-3.99,-0.21,-0.136,-0.426,-0.896
-0.881,0.471,0.137,0.56,-3.5,-0.56,-0.132,-0.42,-0.891
-0.881,0.472,0.135,0.35,-3.5,-0.77,-0.134,-0.418,-0.899
-0.881,0.473,0.131,0.21,-3.5,-0.84,-0.133,-0.42,-0.898
-0.88,0.473,0.129,0.28,-3.22,-0.98,-0.136,-0.422,-0.897
-0.883,0.473,0.129,0.56,-3.36,-0.84,-0.131,-0.422,-0.899
-0.885,0.472,0.127,0.84,-3.5,-1.12,-0.135,-0.422,-0.894
-0.881,0.468,0.126,1.54,-3.36,-1.19,-0.135,-0.421,-0.891
-0.877,0.465,0.125,1.33,-3.5,-1.33,-0.132,-0.423,-0.892
-0.877,0.462,0.123,1.4,-3.5,-1.47,-0.132,-0.423,-0.889
-0.883,0.462,0.121,1.33,-3.57,-1.4,-0.131,-0.42,-0.891
-0.887,0.462,0.125,1.19,-3.22,-0.98,-0.132,-0.423,-0.892
-0.89,0.462,0.126,0.91,-3.43,-0.49,-0.134,-0.418,-0.895
-0.887,0.462,0.123,0.56,-2.87,0.21,-0.135,-0.42,-0.894
-0.885,0.462,0.118,-0.28,-2.94,0.28,-0.135,-0.422,-0.896
-0.884,0.465,0.117,-0.84,-2.94,0.07,-0.131,-0.42,-0.896
-0.885,0.467,0.116,-0.77,-3.15,-0.14,-0.133,-0.421,-0.898
-0.885,0.468,0.116,-0.28,-3.36,0.14,-0.131,-0.424,-0.897
-0.882,0.466,0.118,0.63,-3.85,0.35,-0.133,-0.421,-0.896
