ax,ay,az,gx,gy,gz,mx,my,mz
-0.032,0.389,0.91,-0.07,-1.4,-0.14,0.169,-0.405,-1.204
-0.039,0.395,0.911,-0.63,-1.54,-0.14,0.172,-0.407,-1.198
-0.037,0.403,0.91,-0.98,-1.4,-0.28,0.169,-0.405,-1.197
-0.037,0.407,0.911,-0.21,-1.75,-0.77,0.168,-0.406,-1.203
-0.038,0.407,0.914,1.12,-1.82,-0.07,0.173,-0.409,-1.204
-0.037,0.404,0.914,2.24,-2.24,-0.07,0.168,-0.411,-1.201
-0.036,0.395,0.913,3.15,-2.94,-0.21,0.168,-0.407,-1.199
-0.037,0.384,0.918,2.73,-3.15,-0.35,0.164,-0.408,-1.2
-0.035,0.38,0.921,0.14,-3.92,-0.63,0.167,-0.41,-1.197
-0.03,0.371,0.92,-6.23,-4.41,-1.4,0.165,-0.407,-1.201
-0.026,0.341,0.944,-21.07,-6.44,-2.87,0.166,-0.406,-1.199
-0.005,0.323,0.98,-40.46,-8.12,-4.55,0.165,-0.415,-1.19
0.009,0.332,1.007,-71.75,-13.44,-10.01,0.168,-0.42,-1.191
0.021,0.416,1.004,-90.51,-17.99,-17.78,0.168,-0.427,-1.178
0.016,0.486,0.994,-110.32,-22.33,-22.96,0.168,-0.432,-1.173
0.018,0.528,0.991,-134.05,-23.87,-24.57,0.173,-0.448,-1.157
0.05,0.541,0.973,-154.84,-16.87,-26.39,0.173,-0.461,-1.149
0.133,0.588,0.802,-171.92,-8.33,-31.43,0.177,-0.466,-1.138
0.227,0.647,0.72,-200.2,-8.54,-40.32,0.182,-0.486,-1.112
0.324,0.703,0.615,-229.67,-9.31,-50.54,0.189,-0.492,-1.1
0.429,0.876,0.437,-228.06,-12.95,-56.28,0.199,-0.507,-1.069
0.462,1.031,0.35,-213.92,-21.21,-58.73,0.205,-0.514,-1.06
0.42,1.141,0.417,-177.45,-33.11,-51.1,0.209,-0.525,-1.047
0.318,1.12,0.526,-137.41,-42.07,-48.3,0.218,-0.532,-1.03
0.252,0.988,0.583,-99.12,-37.73,-44.03,0.218,-0.533,-1.023
0.245,0.932,0.527,-71.54,-33.11,-36.96,0.231,-0.543,-1.015
0.239,0.882,0.503,-55.72,-33.67,-18.62,0.242,-0.545,-1.012
0.18,0.789,0.564,-37.8,-37.03,-28.56,0.245,-0.552,-1.007
0.112,0.811,0.581,-26.95,-36.75,-21.7,0.255,-0.554,-1.012
0.044,0.963,0.807,-24.57,-28.07,-20.51,0.257,-0.552,-1.014
0.075,0.905,0.739,-16.66,-14.49,-20.3,0.26,-0.562,-1.008
0.156,0.738,0.597,-18.9,-11.41,-13.37,0.265,-0.562,-1.008
0.191,0.671,0.499,-34.93,-13.86,-7.49,0.269,-0.566,-1.006
0.176,0.768,0.562,-50.54,-20.09,-1.75,0.272,-0.571,-0.995
0.127,0.641,0.561,-54.11,-21.7,5.88,0.273,-0.572,-0.996
0.085,0.696,0.587,-44.45,-14.84,36.47,0.272,-0.572,-0.987
0.058,0.854,0.477,-16.31,-7.07,44.73,0.269,-0.577,-0.983
-0.063,0.809,0.634,-7.0,-4.55,48.44,0.268,-0.577,-0.983
-0.166,0.583,0.888,-15.05,8.75,57.33,0.261,-0.579,-0.983
0.04,0.579,0.611,-53.76,47.95,72.52,0.258,-0.582,-0.974
0.123,0.907,0.401,-99.33,57.33,65.24,0.254,-0.582,-0.964
-0.062,1.101,0.353,-87.36,56.84,68.879,0.24,-0.59,-0.943
-0.256,1.133,0.228,-45.22,66.429,91.21,0.233,-0.588,-0.941
-0.475,1.146,0.103,-1.75,67.62,98.14,0.217,-0.594,-0.943
-0.561,1.174,-0.031,17.22,68.53,98.84,0.207,-0.593,-0.941
-0.566,1.218,-0.17,22.4,65.73,91.21,0.203,-0.592,-0.944
-0.489,1.237,-0.26,20.37,58.659,74.409,0.19,-0.595,-0.946
-0.33,1.118,-0.262,25.06,48.23,57.82,0.182,-0.593,-0.949
-0.22,0.947,-0.075,27.3,20.37,40.18,0.178,-0.602,-0.949
-0.182,0.784,0.364,18.55,7.7,32.27,0.178,-0.599,-0.955
-0.188,0.679,0.578,5.67,7.0,27.79,0.174,-0.597,-0.956
-0.182,0.676,0.565,-9.94,11.34,25.27,0.168,-0.596,-0.955
-0.172,0.802,0.476,-21.14,12.46,20.37,0.169,-0.6,-0.953
-0.175,0.931,0.409,-20.16,9.45,14.49,0.164,-0.599,-0.948
-0.158,0.969,0.371,-13.44,4.55,5.25,0.161,-0.597,-0.946
-0.148,0.959,0.401,-7.91,-2.1,-6.02,0.165,-0.6,-0.946
-0.185,0.962,0.419,-2.1,-9.24,-15.82,0.165,-0.599,-0.947
-0.216,0.833,0.418,11.48,-15.61,-23.94,0.172,-0.596,-0.946
-0.206,0.79,0.381,15.19,-15.75,-24.64,0.174,-0.602,-0.945
-0.173,0.809,0.289,15.47,-15.89,-26.6,0.18,-0.596,-0.945
-0.154,0.866,0.209,14.21,-17.71,-28.56,0.18,-0.603,-0.95
-0.153,0.918,0.146,14.14,-21.63,-31.71,0.188,-0.603,-0.951
-0.163,0.928,0.149,17.01,-25.06,-30.87,0.191,-0.607,-0.952
-0.179,0.923,0.23,18.41,-24.57,-27.37,0.199,-0.61,-0.958
-0.182,0.86,0.216,22.19,-19.25,-19.81,0.203,-0.604,-0.958
-0.24,0.851,0.221,15.54,-16.17,-12.95,0.209,-0.605,-0.959
-0.283,0.887,0.258,4.83,-10.85,-4.13,0.203,-0.608,-0.959
-0.266,0.978,0.279,0.14,-2.17,5.88,0.206,-0.61,-0.962
-0.204,0.967,0.224,2.66,3.36,14.42,0.203,-0.611,-0.96
-0.275,0.983,0.343,-4.83,0.0,20.72,0.203,-0.609,-0.955
-0.44,0.986,0.421,-8.26,3.15,20.3,0.198,-0.607,-0.961
-0.554,1.051,0.414,-10.57,6.37,21.0,0.196,-0.608,-0.956
-0.587,1.114,0.349,-12.25,7.7,18.83,0.2,-0.61,-0.959
-0.566,1.161,0.344,-12.18,7.42,15.89,0.194,-0.605,-0.955
-0.543,1.158,0.394,-9.03,6.3,9.24,0.193,-0.608,-0.96
-0.528,1.16,0.404,-8.05,6.37,2.1,0.19,-0.609,-0.959
-0.531,1.158,0.389,-8.82,5.6,-3.92,0.192,-0.608,-0.953
-0.536,1.099,0.353,-1.33,4.48,-5.18,0.194,-0.602,-0.951
-0.462,1.092,0.254,0.07,7.7,-5.39,0.194,-0.611,-0.951
-0.383,1.172,0.221,-6.93,7.91,-8.12,0.191,-0.609,-0.954
-0.357,1.198,0.16,-6.65,6.65,-11.2,0.198,-0.61,-0.949
-0.365,1.121,0.216,3.22,5.6,-11.76,0.201,-0.609,-0.952
-0.358,0.991,0.253,17.78,8.33,-6.79,0.199,-0.611,-0.953
-0.314,0.879,0.251,15.33,11.76,-4.13,0.203,-0.605,-0.957
-0.28,0.938,0.254,0.35,14.7,0.91,0.202,-0.609,-0.956
-0.286,0.993,0.237,3.78,13.09,1.47,0.204,-0.605,-0.954
-0.274,0.971,0.233,9.87,11.9,1.68,0.203,-0.607,-0.95
-0.242,0.921,0.25,12.39,9.52,-1.05,0.203,-0.61,-0.957
-0.239,0.883,0.283,10.71,7.98,-2.03,0.206,-0.612,-0.956
-0.264,0.874,0.299,8.54,8.47,-2.8,0.2,-0.61,-0.955
-0.254,0.882,0.278,8.47,10.01,-4.83,0.203,-0.614,-0.961
-0.231,0.852,0.218,7.91,9.1,-7.35,0.207,-0.613,-0.965
-0.224,0.798,0.188,3.64,5.53,-8.89,0.213,-0.613,-0.96
-0.255,0.784,0.232,-13.58,0.42,-10.22,0.207,-0.614,-0.964
-0.239,0.815,0.3,-20.23,2.52,-9.17,0.204,-0.609,-0.96
-0.249,0.774,0.369,-20.37,3.64,-5.74,0.209,-0.61,-0.954
-0.222,0.812,0.344,-26.39,8.19,-5.11,0.21,-0.61,-0.953
-0.177,0.936,0.322,-27.79,9.87,-6.44,0.212,-0.606,-0.948
-0.181,0.941,0.3,-13.93,9.8,-4.97,0.212,-0.611,-0.944
-0.24,0.952,0.262,-1.47,5.67,-5.04,0.213,-0.612,-0.943
-0.294,0.94,0.275,2.8,4.2,-6.16,0.214,-0.612,-0.943
-0.257,0.884,0.229,13.02,3.85,-5.95,0.218,-0.611,-0.946
-0.283,0.887,0.341,10.15,2.45,-8.26,0.22,-0.614,-0.95
-0.283,0.78,0.353,30.8,6.02,-3.36,0.221,-0.613,-0.957
-0.241,0.676,0.315,35.49,8.4,-1.61,0.223,-0.611,-0.961
-0.178,0.708,0.223,22.89,9.31,-1.96,0.223,-0.614,-0.96
-0.122,0.765,0.153,-2.38,6.09,-9.31,0.22,-0.612,-0.958
-0.153,0.874,0.188,-8.33,2.1,-13.93,0.222,-0.611,-0.962
-0.136,0.869,0.217,-4.62,2.73,-15.12,0.23,-0.615,-0.955
-0.121,0.829,0.235,1.47,2.38,-13.09,0.229,-0.609,-0.954
-0.135,0.803,0.262,8.4,1.68,-7.91,0.227,-0.611,-0.956
-0.12,0.778,0.217,14.91,3.29,-3.99,0.229,-0.609,-0.96
-0.085,0.787,0.17,8.68,2.94,-3.99,0.228,-0.613,-0.957
-0.103,0.856,0.192,-2.24,-0.14,-6.02,0.233,-0.612,-0.961
-0.124,0.887,0.223,-3.71,-0.28,-7.77,0.229,-0.613,-0.962
-0.161,0.899,0.312,-0.35,-2.03,-6.23,0.231,-0.611,-0.957
-0.127,0.907,0.338,1.05,0.56,-6.23,0.232,-0.609,-0.953
-0.04,0.933,0.329,-4.34,4.55,-8.75,0.234,-0.61,-0.96
-0.024,0.988,0.307,-10.15,5.32,-13.23,0.237,-0.614,-0.956
-0.022,0.99,0.327,-9.45,6.3,-15.54,0.233,-0.613,-0.953
-0.041,1.009,0.328,-7.63,5.39,-18.69,0.241,-0.617,-0.951
-0.024,0.961,0.233,17.01,7.35,-17.57,0.242,-0.615,-0.951
-0.048,0.796,0.196,22.54,2.73,-15.05,0.246,-0.611,-0.955
-0.068,0.778,0.174,15.75,1.05,-15.26,0.25,-0.615,-0.963
-0.071,0.785,0.208,5.18,-0.98,-17.43,0.252,-0.615,-0.963
-0.065,0.77,0.251,1.33,-0.77,-16.94,0.257,-0.614,-0.961
-0.069,0.749,0.281,0.98,-0.84,-12.74,0.259,-0.613,-0.962
-0.072,0.718,0.262,1.82,-1.19,-4.83,0.256,-0.612,-0.958
-0.08,0.81,0.226,-5.25,-2.59,-2.94,0.255,-0.611,-0.963
-0.055,0.874,0.238,-8.96,-3.15,-3.71,0.259,-0.611,-0.961
-0.058,0.866,0.263,-3.85,-5.88,-0.91,0.259,-0.612,-0.956
-0.073,0.835,0.273,1.12,-7.84,3.36,0.259,-0.614,-0.958
-0.097,0.815,0.278,4.97,-8.89,8.19,0.252,-0.61,-0.958
-0.094,0.79,0.269,6.09,-9.17,11.41,0.255,-0.61,-0.959
-0.089,0.803,0.304,2.52,-10.36,15.19,0.252,-0.61,-0.965
-0.132,0.996,0.459,-3.5,-13.16,19.04,0.251,-0.612,-0.965
-0.069,1.12,0.416,13.3,-7.21,22.19,0.245,-0.61,-0.972
-0.092,1.137,0.474,31.5,-9.1,24.43,0.245,-0.609,-0.975
-0.153,1.035,0.428,49.56,-6.09,20.23,0.243,-0.612,-0.977
-0.148,1.081,0.427,45.71,-4.55,14.42,0.239,-0.614,-0.983
-0.113,0.985,0.372,48.09,-3.43,8.68,0.245,-0.615,-0.991
-0.148,0.926,0.444,40.18,-5.6,4.48,0.237,-0.614,-0.999
-0.147,0.836,0.435,36.33,-1.96,2.31,0.237,-0.614,-1.003
-0.151,0.771,0.443,29.26,-0.35,1.33,0.239,-0.614,-1.008
-0.155,0.735,0.432,19.53,1.47,1.33,0.239,-0.615,-1.006
-0.155,0.795,0.407,0.63,3.43,0.35,0.242,-0.612,-1.003
-0.144,0.855,0.391,-6.23,3.08,-1.89,0.239,-0.612,-1.006
-0.128,0.894,0.389,-7.07,1.75,-2.31,0.239,-0.614,-1.003
-0.121,0.917,0.414,-3.15,0.0,-1.4,0.239,-0.61,-0.999
-0.122,0.884,0.424,3.08,-0.28,0.07,0.237,-0.61,-0.998
-0.12,0.847,0.414,4.55,0.49,1.82,0.232,-0.612,-1.006
-0.118,0.878,0.405,0.63,-0.28,1.33,0.237,-0.609,-1.001
-0.112,0.904,0.382,1.96,-0.49,1.4,0.233,-0.612,-1.004
-0.112,0.892,0.379,7.35,-2.38,1.54,0.238,-0.611,-1.005
-0.111,0.883,0.362,12.74,-3.29,2.45,0.234,-0.61,-1.012
-0.085,0.816,0.362,11.76,-3.29,1.82,0.237,-0.614,-1.013
-0.102,0.859,0.412,-15.05,-4.69,1.26,0.232,-0.608,-1.008
-0.08,0.904,0.435,-1.4,-1.54,-0.14,0.237,-0.606,-1.012
-0.072,0.911,0.414,0.63,-1.75,-0.49,0.238,-0.613,-1.003
-0.075,0.894,0.369,3.57,-3.01,0.07,0.235,-0.608,-1.011
-0.077,0.878,0.379,2.66,-4.48,-0.91,0.235,-0.609,-1.01
-0.089,0.857,0.397,0.7,-5.11,-1.33,0.236,-0.611,-1.002
-0.117,0.877,0.412,-3.64,-4.97,-2.31,0.235,-0.614,-1.01
-0.126,0.898,0.407,-5.11,-4.06,-2.03,0.238,-0.608,-1.002
-0.152,0.914,0.426,-3.78,-5.04,-0.91,0.235,-0.614,-1.01
-0.146,0.935,0.428,-3.01,-4.76,-0.84,0.239,-0.614,-1.003
-0.131,0.92,0.435,0.07,-4.13,-0.63,0.246,-0.61,-1.009
-0.107,0.906,0.443,3.57,-3.85,-0.91,0.237,-0.611,-1.01
-0.113,0.948,0.457,5.53,-5.18,-2.03,0.24,-0.609,-1.008
-0.117,0.934,0.458,7.21,-4.62,-3.85,0.24,-0.612,-1.004
-0.114,0.94,0.474,7.07,-3.92,-4.34,0.242,-0.612,-1.01
-0.114,0.944,0.473,9.52,-3.43,-4.62,0.239,-0.608,-1.01
-0.116,0.925,0.462,13.86,-2.8,-3.64,0.241,-0.607,-1.013
-0.112,0.911,0.437,16.03,-2.03,-3.36,0.246,-0.611,-1.02
-0.108,0.873,0.42,18.13,-1.96,-2.59,0.238,-0.609,-1.024
-0.108,0.849,0.4,19.39,-2.8,-1.96,0.24,-0.608,-1.024
-0.107,0.788,0.417,18.55,-2.94,0.28,0.245,-0.606,-1.026
-0.143,0.731,0.406,11.06,-3.85,0.49,0.243,-0.609,-1.03
-0.13,0.761,0.404,1.12,-3.01,2.1,0.238,-0.604,-1.021
-0.112,0.813,0.407,-4.41,-3.08,1.82,0.245,-0.612,-1.021
-0.103,0.825,0.42,-5.32,-2.87,2.31,0.244,-0.609,-1.021
-0.12,0.829,0.437,-8.05,-2.31,1.47,0.242,-0.612,-1.016
-0.122,0.849,0.435,-14.35,-0.35,-0.56,0.244,-0.602,-1.021
-0.116,0.905,0.454,-17.15,0.56,-0.35,0.239,-0.603,-1.019
-0.128,0.924,0.47,-11.9,0.56,0.28,0.244,-0.607,-1.019
-0.143,0.903,0.473,-8.05,0.91,0.35,0.238,-0.608,-1.012
-0.137,0.907,0.47,-8.33,1.89,0.35,0.241,-0.611,-1.013
-0.121,0.945,0.472,-7.28,2.03,0.7,0.244,-0.608,-1.007
-0.107,0.944,0.461,-2.31,2.52,0.63,0.245,-0.611,-1.013
-0.11,0.914,0.454,1.54,1.33,0.28,0.244,-0.606,-1.01
-0.122,0.892,0.466,3.29,1.68,0.84,0.242,-0.611,-1.015
-0.118,0.854,0.453,3.43,2.31,2.03,0.246,-0.611,-1.012
-0.115,0.855,0.441,0.7,3.01,3.01,0.24,-0.611,-1.011
-0.11,0.881,0.426,-2.45,4.13,2.87,0.243,-0.613,-1.012
-0.099,0.914,0.42,-3.15,4.55,1.96,0.239,-0.607,-1.01
-0.085,0.888,0.416,0.7,4.97,1.33,0.241,-0.612,-1.009
-0.065,0.87,0.424,3.85,5.53,1.47,0.236,-0.617,-1.017
-0.04,0.863,0.413,5.18,7.42,-0.84,0.238,-0.611,-1.013
-0.056,0.848,0.395,5.32,7.56,-3.71,0.237,-0.61,-1.01
-0.089,0.831,0.391,4.9,7.21,-6.09,0.243,-0.614,-1.017
-0.107,0.823,0.396,4.41,8.33,-8.89,0.242,-0.61,-1.017
-0.116,0.795,0.397,7.14,9.31,-11.27,0.241,-0.607,-1.021
-0.143,0.726,0.399,10.71,10.43,-13.58,0.246,-0.61,-1.012
-0.162,0.646,0.381,10.36,12.25,-14.7,0.245,-0.607,-1.011
-0.164,0.595,0.36,7.07,13.86,-14.14,0.25,-0.608,-1.019
-0.163,0.578,0.343,4.27,14.42,-12.74,0.255,-0.609,-1.016
-0.142,0.577,0.318,4.69,12.95,-7.21,0.256,-0.609,-1.016
-0.147,0.598,0.329,1.05,12.04,-4.62,0.256,-0.614,-1.017
-0.159,0.62,0.367,-3.71,12.6,-0.7,0.259,-0.609,-1.017
-0.183,0.654,0.394,-9.45,14.49,2.73,0.256,-0.609,-1.015
-0.193,0.697,0.382,-16.38,18.27,3.64,0.255,-0.606,-1.013
-0.191,0.758,0.383,-21.56,20.23,4.2,0.252,-0.606,-1.005
-0.178,0.834,0.36,-21.35,20.79,4.55,0.257,-0.611,-1.0
-0.172,0.893,0.322,-17.29,17.15,3.71,0.256,-0.61,-0.998
-0.171,0.896,0.287,-12.67,14.63,4.62,0.252,-0.611,-0.996
-0.172,0.927,0.273,-10.08,11.97,2.45,0.25,-0.613,-0.997
-0.168,0.914,0.264,-8.05,13.44,7.91,0.254,-0.608,-0.995
-0.159,0.933,0.23,-9.24,14.91,10.15,0.251,-0.606,-0.991
-0.134,0.942,0.248,-12.25,15.33,11.97,0.246,-0.61,-0.992
-0.1,0.996,0.242,-14.84,15.96,12.95,0.245,-0.608,-0.986
-0.046,0.992,0.227,-12.25,16.66,11.9,0.245,-0.605,-0.987
-0.072,0.954,0.219,-11.34,14.21,11.62,0.246,-0.608,-0.984
-0.166,0.927,0.175,-10.43,11.27,11.41,0.243,-0.608,-0.98
-0.227,0.884,0.197,-7.07,5.95,12.88,0.242,-0.607,-0.977
-0.255,0.831,0.228,-3.08,0.91,14.56,0.238,-0.606,-0.984
-0.283,0.761,0.255,-2.8,-2.8,16.03,0.239,-0.608,-0.981
-0.323,0.756,0.297,-5.88,-7.84,19.74,0.231,-0.611,-0.981
-0.359,0.781,0.295,-10.29,-11.76,24.01,0.232,-0.607,-0.982
-0.371,0.759,0.305,-16.03,-14.7,25.69,0.23,-0.605,-0.977
-0.394,0.805,0.315,-25.9,-18.83,26.32,0.226,-0.611,-0.97
-0.426,0.91,0.364,-34.72,-22.75,24.85,0.225,-0.608,-0.963
-0.422,0.943,0.35,-35.56,-22.89,22.54,0.217,-0.609,-0.961
-0.383,0.953,0.298,-35.84,-23.1,19.6,0.208,-0.61,-0.964
-0.345,0.949,0.239,-36.05,-27.93,10.99,0.209,-0.605,-0.952
-0.364,0.924,0.165,-38.99,-36.47,1.47,0.21,-0.608,-0.948
-0.443,0.999,0.115,-39.06,-45.99,-6.79,0.205,-0.605,-0.941
-0.418,1.142,0.24,-29.68,-54.32,-7.49,0.207,-0.603,-0.935
-0.391,1.258,0.394,-7.84,-56.98,-5.88,0.21,-0.604,-0.932
-0.401,1.207,0.386,13.51,-55.16,-11.76,0.207,-0.605,-0.94
-0.394,1.077,0.307,14.7,-51.45,-21.49,0.213,-0.604,-0.944
-0.343,1.085,0.28,-0.56,-49.77,-30.45,0.213,-0.604,-0.936
-0.272,1.158,0.313,-13.16,-46.76,-39.27,0.22,-0.605,-0.935
-0.249,1.149,0.381,-2.87,-43.26,-43.05,0.226,-0.602,-0.936
-0.3,1.092,0.381,1.68,-41.3,-47.88,0.233,-0.605,-0.936
-0.314,1.056,0.359,-2.45,-37.31,-53.48,0.241,-0.605,-0.936
-0.274,1.09,0.313,-6.23,-33.39,-57.05,0.243,-0.601,-0.937
-0.227,1.117,0.3,-1.12,-32.41,-58.45,0.255,-0.601,-0.935
-0.179,1.114,0.298,12.74,-36.4,-55.86,0.259,-0.601,-0.939
-0.119,1.078,0.275,22.47,-39.76,-53.69,0.268,-0.597,-0.946
-0.055,1.054,0.272,39.83,-45.78,-41.93,0.276,-0.593,-0.949
-0.091,0.951,0.271,65.8,-56.42,-37.59,0.275,-0.598,-0.95
-0.265,0.889,0.503,68.81,-61.46,-32.9,0.277,-0.593,-0.958
-0.272,0.689,0.567,79.45,-49.14,-19.53,0.279,-0.59,-0.977
-0.134,0.561,0.479,69.159,-34.02,-6.16,0.282,-0.59,-0.988
-0.011,0.663,0.417,48.09,-25.83,1.4,0.281,-0.586,-0.987
0.055,0.834,0.36,42.42,-18.48,30.38,0.278,-0.582,-0.99
0.088,0.947,0.408,85.82,-18.13,42.77,0.27,-0.585,-1.004
0.102,0.956,0.424,119.7,-19.67,60.62,0.262,-0.579,-1.024
0.113,0.939,0.491,143.92,-22.47,70.21,0.259,-0.579,-1.029
0.162,0.961,0.601,170.94,-20.02,76.159,0.239,-0.57,-1.06
0.24,1.011,0.636,199.36,-14.56,78.399,0.234,-0.57,-1.076
0.256,0.883,0.687,213.99,-14.91,70.84,0.215,-0.554,-1.109
0.196,0.673,0.772,210.84,-18.27,63.56,0.21,-0.547,-1.125
0.106,0.535,0.841,172.83,-16.38,55.23,0.203,-0.533,-1.14
0.044,0.447,0.924,136.92,-8.82,52.919,0.189,-0.517,-1.155
0.072,0.489,0.953,103.74,2.24,50.399,0.185,-0.512,-1.161
0.126,0.531,0.929,82.74,13.23,43.33,0.182,-0.498,-1.169
0.156,0.517,0.914,73.29,14.7,39.69,0.175,-0.499,-1.165
0.122,0.463,0.968,69.02,9.59,42.35,0.172,-0.493,-1.176
0.055,0.41,1.018,63.77,8.54,46.62,0.17,-0.481,-1.175
0.029,0.387,1.004,50.33,12.95,49.21,0.163,-0.478,-1.185
0.03,0.53,1.164,25.06,22.89,40.32,0.159,-0.477,-1.174
0.015,0.836,1.484,-9.1,48.159,14.49,0.155,-0.479,-1.174
0.05,0.61,1.185,0.98,59.01,22.12,0.154,-0.475,-1.171
0.012,0.559,1.054,-6.72,57.82,27.58,0.152,-0.471,-1.168
-0.015,0.493,0.927,-23.94,62.79,18.55,0.157,-0.474,-1.164
-0.008,0.518,0.776,-29.54,64.19,19.67,0.154,-0.474,-1.153
0.02,0.572,0.665,-21.7,60.129,21.28,0.157,-0.477,-1.148
0.045,0.539,0.612,-2.24,43.19,22.19,0.161,-0.473,-1.152
0.034,0.547,0.686,3.78,28.14,23.59,0.163,-0.476,-1.15
-0.015,0.569,0.813,0.07,16.52,21.84,0.159,-0.483,-1.149
-0.07,0.587,0.91,-2.03,9.45,17.01,0.156,-0.474,-1.152
-0.075,0.567,0.885,-1.19,12.67,8.89,0.152,-0.47,-1.145
-0.026,0.534,0.825,2.17,12.53,7.07,0.152,-0.473,-1.141
0.014,0.489,0.836,10.15,7.91,7.84,0.152,-0.472,-1.138
0.021,0.449,0.85,23.17,1.33,9.38,0.149,-0.465,-1.138
0.002,0.424,0.849,23.66,-0.91,10.01,0.148,-0.468,-1.142
-0.004,0.418,0.851,22.61,-2.03,11.13,0.142,-0.464,-1.144
-0.009,0.401,0.854,21.98,-2.73,13.37,0.14,-0.456,-1.146
-0.022,0.382,0.869,16.8,-3.43,15.61,0.139,-0.46,-1.143
-0.059,0.393,0.919,2.8,-4.06,17.5,0.134,-0.459,-1.152
-0.153,0.484,0.991,-23.94,2.87,18.27,0.126,-0.457,-1.141
-0.171,0.565,0.952,-36.19,11.34,15.89,0.128,-0.459,-1.138
-0.168,0.631,0.881,-36.47,15.89,14.28,0.125,-0.462,-1.14
-0.186,0.617,0.849,-28.91,17.92,12.81,0.126,-0.464,-1.138
-0.214,0.575,0.831,-21.98,20.58,10.99,0.127,-0.461,-1.135
-0.226,0.518,0.809,-19.53,24.99,8.19,0.124,-0.464,-1.135
-0.221,0.469,0.794,-23.24,28.42,5.95,0.124,-0.469,-1.136
-0.209,0.457,0.788,-30.45,30.45,3.99,0.126,-0.466,-1.125
-0.186,0.497,0.795,-34.16,31.15,3.22,0.129,-0.473,-1.123
-0.153,0.554,0.817,-29.26,28.21,2.73,0.135,-0.473,-1.12
-0.095,0.57,0.828,-26.18,24.5,2.94,0.128,-0.476,-1.114
-0.063,0.605,0.824,-25.76,19.46,3.85,0.132,-0.48,-1.113
-0.036,0.649,0.813,-25.83,14.63,4.13,0.133,-0.479,-1.103
-0.014,0.677,0.794,-23.38,9.1,3.64,0.133,-0.48,-1.101
0.001,0.69,0.778,-18.62,4.34,3.22,0.131,-0.48,-1.1
0.01,0.693,0.774,-12.46,0.42,2.03,0.129,-0.482,-1.1
0.0,0.699,0.773,-5.88,-2.8,0.21,0.13,-0.485,-1.095
-0.023,0.661,0.778,5.6,-6.37,-3.22,0.132,-0.484,-1.102
-0.061,0.626,0.782,14.0,-6.86,-3.99,0.131,-0.488,-1.096
-0.083,0.576,0.793,17.08,-6.93,-3.92,0.129,-0.486,-1.106
-0.097,0.533,0.79,13.09,-5.46,-4.2,0.127,-0.486,-1.101
-0.103,0.523,0.79,4.41,-3.43,-3.5,0.128,-0.483,-1.106
-0.101,0.545,0.783,-4.48,-1.47,-2.31,0.131,-0.489,-1.112
-0.098,0.587,0.775,-10.15,-0.28,-0.84,0.126,-0.488,-1.108
-0.096,0.635,0.774,-11.62,0.21,0.28,0.126,-0.488,-1.105
-0.096,0.664,0.776,-5.67,0.91,1.26,0.124,-0.49,-1.109
-0.099,0.667,0.773,0.07,0.84,1.75,0.128,-0.49,-1.108
-0.099,0.649,0.776,5.6,0.91,1.82,0.124,-0.491,-1.103
-0.092,0.626,0.779,9.45,0.98,1.82,0.128,-0.488,-1.102
-0.086,0.602,0.786,11.34,0.91,1.26,0.129,-0.49,-1.108
-0.085,0.587,0.793,11.13,0.35,1.33,0.125,-0.486,-1.11
-0.086,0.578,0.796,9.87,0.07,0.77,0.128,-0.488,-1.111
-0.084,0.579,0.798,7.98,-0.28,0.63,0.127,-0.487,-1.113
-0.089,0.588,0.798,6.02,-1.26,0.21,0.124,-0.485,-1.111
-0.091,0.589,0.797,5.39,-1.12,0.28,0.125,-0.488,-1.114
-0.086,0.591,0.793,5.04,-0.84,0.35,0.128,-0.486,-1.116
-0.082,0.593,0.793,4.48,-0.91,0.21,0.126,-0.486,-1.116
-0.077,0.591,0.793,4.27,-0.84,0.42,0.122,-0.485,-1.119
-0.071,0.59,0.792,4.06,17.85,0.98,0.124,-0.484,-1.115
-0.067,0.597,0.794,3.85,0.63,1.33,0.124,-0.479,-1.115
-0.065,0.596,0.799,4.62,0.7,1.47,0.125,-0.48,-1.115
-0.067,0.592,0.802,5.81,0.77,1.61,0.123,-0.479,-1.115
-0.071,0.588,0.802,6.37,0.21,1.47,0.131,-0.481,-1.119
-0.077,0.579,0.802,6.51,-0.14,1.19,0.126,-0.483,-1.115
-0.085,0.571,0.803,6.44,-0.7,1.12,0.124,-0.48,-1.123
-0.091,0.571,0.801,4.76,-0.84,0.42,0.118,-0.48,-1.126
