ax,ay,az,gx,gy,gz,mx,my,mz
-0.083,0.578,0.801,0.42,0.7,-0.14,0.123,-0.476,-1.109
-0.078,0.58,0.796,0.28,1.05,-0.14,0.122,-0.474,-1.104
-0.081,0.588,0.798,0.07,0.77,-0.14,0.117,-0.472,-1.109
-0.087,0.591,0.802,0.21,0.91,-0.14,0.123,-0.473,-1.111
-0.086,0.59,0.807,0.49,0.77,0.0,0.124,-0.475,-1.11
-0.085,0.596,0.814,-1.19,0.49,-0.63,0.12,-0.472,-1.109
-0.082,0.612,0.831,-6.02,-0.7,-1.89,0.12,-0.472,-1.107
-0.068,0.628,0.86,-11.48,-1.82,-3.29,0.119,-0.475,-1.104
-0.042,0.634,0.903,-13.86,-5.39,-4.9,0.121,-0.475,-1.103
-0.031,0.623,0.915,-15.05,-13.09,-14.84,0.123,-0.476,-1.106
-0.049,0.65,0.903,-20.16,-16.24,-21.98,0.128,-0.477,-1.107
-0.068,0.746,0.827,-25.9,-12.74,-25.48,0.129,-0.475,-1.105
0.004,0.819,0.81,-23.73,-10.22,-27.58,0.13,-0.482,-1.102
0.088,0.803,0.761,-9.24,-8.89,-31.43,0.139,-0.483,-1.098
0.175,0.793,0.76,-7.49,-11.55,-37.8,0.144,-0.482,-1.108
0.188,0.92,0.766,-7.91,-17.64,-44.24,0.146,-0.485,-1.103
0.185,1.045,0.767,-5.32,-19.04,-55.58,0.153,-0.488,-1.102
0.257,1.031,0.649,17.43,-17.57,-71.19,0.162,-0.488,-1.118
0.353,0.866,0.619,30.66,-26.32,-78.96,0.173,-0.486,-1.127
0.374,0.772,0.645,27.72,-36.47,-86.73,0.185,-0.487,-1.137
0.314,0.703,0.743,16.24,-41.02,-95.13,0.195,-0.483,-1.135
0.267,0.674,0.824,8.19,-42.07,-97.37,0.199,-0.487,-1.143
0.247,0.544,0.861,4.41,-39.69,-96.25,0.223,-0.484,-1.16
0.231,0.438,0.873,-3.99,-37.24,-92.19,0.226,-0.484,-1.16
0.234,0.321,0.872,-22.05,-36.4,-89.46,0.234,-0.484,-1.169
0.243,0.146,0.838,-48.3,-38.57,-84.49,0.247,-0.493,-1.169
0.269,0.103,0.774,-114.8,-48.37,-74.83,0.249,-0.497,-1.165
0.249,0.239,0.842,-160.58,-56.7,-70.35,0.265,-0.513,-1.137
0.177,0.433,0.941,-190.47,-59.64,-66.57,0.266,-0.519,-1.127
0.144,0.637,0.999,-196.98,-56.0,-50.47,0.275,-0.527,-1.119
0.142,0.747,0.909,-178.92,-48.65,-34.23,0.284,-0.541,-1.089
0.117,0.891,0.891,-144.2,-41.44,-19.74,0.284,-0.545,-1.091
0.091,0.846,0.796,-90.93,-33.11,-3.15,0.288,-0.554,-1.077
0.046,0.735,0.779,-45.36,-30.03,24.29,0.285,-0.56,-1.07
-0.143,0.997,0.694,-39.13,-24.92,15.12,0.285,-0.559,-1.066
-0.475,0.682,1.14,-7.49,-14.56,23.8,0.281,-0.566,-1.065
-0.502,0.336,1.368,4.62,21.21,71.75,0.279,-0.567,-1.069
-0.121,0.52,0.745,-75.32,63.629,62.929,0.274,-0.572,-1.05
-0.1,0.78,0.516,-132.93,56.84,29.26,0.272,-0.578,-1.042
-0.228,0.98,0.381,-114.66,58.24,40.88,0.272,-0.582,-1.03
-0.222,1.07,0.22,-58.24,64.05,61.46,0.271,-0.587,-1.01
-0.138,1.039,-0.002,-10.57,63.419,76.86,0.259,-0.585,-1.016
-0.181,1.177,0.024,-18.34,42.28,82.879,0.246,-0.591,-1.009
-0.214,1.336,0.124,-21.49,33.11,76.51,0.242,-0.591,-1.003
-0.165,1.368,0.196,-0.28,33.6,72.31,0.233,-0.591,-1.004
-0.109,1.219,0.272,23.66,32.62,64.33,0.23,-0.593,-1.008
-0.139,1.026,0.34,27.44,28.98,51.52,0.223,-0.595,-1.006
-0.218,0.909,0.433,10.99,27.86,41.16,0.215,-0.594,-1.003
-0.243,0.867,0.513,-5.53,40.74,35.21,0.212,-0.597,-1.01
-0.13,0.875,0.415,-12.18,43.4,30.45,0.211,-0.593,-1.002
-0.129,0.897,0.433,-12.81,39.06,21.7,0.21,-0.594,-1.0
-0.131,0.884,0.424,-6.72,35.63,15.96,0.213,-0.597,-1.004
-0.118,0.833,0.413,-4.97,33.6,10.92,0.206,-0.603,-1.005
-0.107,0.803,0.443,-8.68,30.1,6.37,0.205,-0.598,-1.001
-0.092,0.78,0.492,-12.88,27.72,2.52,0.208,-0.6,-0.999
-0.037,0.736,0.46,-20.16,27.3,-4.97,0.215,-0.6,-0.999
-0.025,0.735,0.474,-30.8,25.2,-7.28,0.212,-0.602,-0.992
-0.01,0.829,0.484,-39.55,24.22,-11.48,0.216,-0.602,-0.992
0.013,0.997,0.451,-44.24,22.75,-18.48,0.216,-0.608,-0.984
0.021,1.15,0.425,-30.38,19.18,-22.26,0.224,-0.598,-0.981
-0.097,1.259,0.484,-1.82,9.87,-21.7,0.226,-0.603,-0.977
-0.2,1.247,0.511,28.84,9.45,-22.12,0.225,-0.603,-0.982
-0.169,1.082,0.425,55.51,18.06,-21.42,0.229,-0.603,-0.993
-0.116,0.881,0.416,63.909,21.49,-20.65,0.234,-0.603,-0.999
-0.092,0.782,0.414,59.429,22.82,-19.74,0.237,-0.603,-1.004
-0.081,0.687,0.402,49.0,23.59,-19.18,0.239,-0.607,-1.015
-0.123,0.679,0.412,34.09,19.95,-18.27,0.246,-0.606,-1.016
-0.169,0.739,0.381,18.13,18.2,-17.92,0.254,-0.603,-1.021
-0.235,0.808,0.402,9.03,15.89,-14.98,0.253,-0.6,-1.018
-0.245,0.818,0.365,11.97,16.52,-12.11,0.254,-0.599,-1.019
-0.195,0.811,0.336,11.48,15.12,-9.59,0.257,-0.602,-1.023
-0.16,0.753,0.306,9.24,9.59,-9.45,0.261,-0.604,-1.027
-0.165,0.763,0.446,-7.42,6.79,-12.39,0.264,-0.598,-1.02
-0.111,0.849,0.433,-18.9,7.84,-14.77,0.263,-0.598,-1.018
-0.082,0.939,0.442,-25.41,6.16,-18.2,0.263,-0.601,-1.018
-0.145,0.909,0.369,-18.83,2.66,-19.11,0.271,-0.605,-1.01
-0.245,0.871,0.371,-17.08,-1.05,-20.02,0.273,-0.602,-1.008
-0.203,0.898,0.305,-14.07,-0.98,-19.81,0.273,-0.601,-1.004
-0.21,0.945,0.317,-12.18,-5.11,-19.81,0.278,-0.603,-1.007
-0.226,0.916,0.315,-2.24,-6.3,-17.71,0.283,-0.603,-1.007
-0.219,0.818,0.291,-3.85,-6.79,-16.31,0.288,-0.602,-1.006
-0.224,0.881,0.345,-14.7,-8.54,-11.83,0.285,-0.597,-1.001
-0.183,0.926,0.368,-20.58,-2.8,-10.57,0.288,-0.604,-0.998
-0.158,0.924,0.438,-23.87,-1.05,-8.54,0.293,-0.598,-0.999
-0.126,1.012,0.424,-23.66,1.33,-6.79,0.294,-0.601,-0.992
-0.076,1.03,0.405,-13.79,2.24,-4.97,0.29,-0.598,-0.997
-0.077,0.97,0.378,-2.1,0.07,-2.03,0.291,-0.601,-0.997
-0.072,0.876,0.367,1.54,-1.68,0.14,0.292,-0.604,-0.999
-0.102,0.919,0.365,-8.12,-3.64,-0.77,0.29,-0.6,-0.993
-0.103,1.026,0.377,-14.77,-3.01,-3.99,0.294,-0.602,-0.992
-0.073,1.05,0.337,-7.91,-2.73,-5.95,0.292,-0.605,-0.996
-0.074,0.921,0.345,10.36,-4.48,-4.55,0.294,-0.605,-0.988
-0.088,0.812,0.366,15.19,-5.32,-1.75,0.292,-0.602,-0.996
-0.105,0.829,0.358,8.82,-4.06,-0.7,0.289,-0.599,-0.996
-0.084,0.86,0.321,5.81,-2.17,-0.91,0.292,-0.609,-0.997
-0.1,0.839,0.313,7.77,-2.38,-0.63,0.296,-0.597,-0.994
-0.147,0.823,0.323,8.61,-2.73,-0.84,0.295,-0.602,-0.993
-0.189,0.788,0.335,10.71,-1.82,-0.7,0.296,-0.605,-1.005
-0.209,0.732,0.339,10.78,-1.19,-1.89,0.292,-0.606,-1.002
-0.137,0.768,0.362,2.24,0.14,-3.15,0.295,-0.606,-1.0
0.003,0.837,0.349,-0.98,-1.4,-4.06,0.293,-0.604,-0.999
0.027,0.883,0.344,4.2,-3.43,-4.97,0.296,-0.609,-0.999
0.029,0.863,0.346,13.93,-4.06,-4.69,0.297,-0.606,-1.003
0.041,0.829,0.341,21.35,-4.83,-2.94,0.298,-0.605,-1.005
0.051,0.789,0.336,25.69,-4.97,-0.42,0.3,-0.606,-1.006
0.069,0.768,0.327,26.95,-5.18,2.17,0.298,-0.6,-1.015
0.091,0.751,0.315,18.06,-5.95,8.61,0.296,-0.604,-1.017
0.075,0.793,0.36,10.71,-4.97,11.48,0.295,-0.602,-1.014
0.121,0.822,0.321,7.35,-1.96,13.09,0.294,-0.602,-1.017
0.106,0.825,0.343,-0.98,-3.01,11.2,0.292,-0.601,-1.015
0.072,0.837,0.36,-3.08,-2.52,10.78,0.291,-0.602,-1.02
0.062,0.815,0.376,-4.34,-1.47,12.11,0.29,-0.605,-1.019
0.026,0.849,0.4,-9.17,-2.73,11.97,0.29,-0.607,-1.017
0.013,0.865,0.402,-9.24,-1.89,11.41,0.286,-0.607,-1.01
-0.001,0.808,0.456,-6.09,-4.27,13.51,0.287,-0.605,-1.016
-0.057,0.816,0.5,-11.13,-3.29,15.33,0.281,-0.604,-1.008
-0.059,0.892,0.485,-16.87,-0.7,14.28,0.28,-0.609,-1.006
-0.067,0.929,0.479,-16.45,0.14,14.07,0.281,-0.607,-1.009
-0.06,0.94,0.487,-12.04,1.12,13.09,0.281,-0.606,-0.969
-0.035,0.973,0.487,-8.12,2.24,10.5,0.275,-0.608,-1.002
-0.041,0.99,0.478,1.12,1.75,8.54,0.271,-0.608,-1.005
-0.028,0.956,0.429,34.23,1.4,6.37,0.271,-0.609,-1.004
-0.047,0.884,0.446,19.88,-2.38,5.25,0.274,-0.61,-1.008
-0.059,0.885,0.428,17.29,-1.19,3.78,0.27,-0.608,-1.01
-0.035,0.855,0.423,11.69,0.0,2.73,0.272,-0.603,-1.012
-0.038,0.895,0.406,-1.68,0.84,-0.84,0.273,-0.608,-1.01
-0.02,0.966,0.393,-7.42,2.24,-3.71,0.274,-0.602,-1.008
0.004,0.988,0.39,-3.36,1.33,-5.11,0.273,-0.607,-1.013
0.027,0.94,0.373,3.92,1.33,-6.16,0.271,-0.608,-1.006
0.017,0.908,0.366,8.19,-0.77,-6.44,0.267,-0.606,-1.007
-0.006,0.845,0.388,9.24,-3.01,-5.81,0.269,-0.605,-1.005
-0.013,0.819,0.399,8.54,-2.8,-4.76,0.273,-0.609,-1.007
-0.001,0.847,0.385,3.99,-2.59,-4.13,0.278,-0.607,-1.009
0.013,0.868,0.399,2.31,-2.8,-3.22,0.279,-0.608,-1.014
0.004,0.836,0.418,3.78,-3.15,-2.87,0.276,-0.605,-1.018
0.011,0.79,0.419,2.66,-2.45,-3.01,0.279,-0.604,-1.017
0.025,0.805,0.419,-2.73,-2.24,-2.52,0.279,-0.609,-1.013
0.033,0.857,0.437,-4.55,-3.36,-1.82,0.278,-0.605,-1.011
0.021,0.894,0.45,-3.29,-4.13,-1.82,0.279,-0.606,-1.015
-0.002,0.929,0.457,-1.75,-5.04,-3.64,0.279,-0.603,-1.012
0.0,0.907,0.442,3.29,-5.04,-4.34,0.281,-0.606,-1.011
-0.003,0.843,0.454,7.91,-6.58,-3.5,0.282,-0.602,-1.018
-0.028,0.818,0.462,6.3,-7.28,-2.52,0.279,-0.603,-1.017
-0.045,0.851,0.452,-0.7,-6.02,-3.29,0.279,-0.603,-1.018
-0.028,0.915,0.481,-5.95,-5.18,-3.15,0.275,-0.601,-1.02
-0.027,0.918,0.465,-7.21,-3.5,-3.43,0.277,-0.604,-1.019
-0.027,0.91,0.443,-10.99,-1.82,-4.76,0.275,-0.603,-1.016
0.0,0.914,0.438,-14.91,1.75,-5.11,0.282,-0.608,-1.008
0.032,0.955,0.427,-15.96,3.15,-3.85,0.279,-0.6,-1.01
0.022,0.978,0.415,-11.83,2.17,-3.43,0.279,-0.603,-1.007
0.017,0.955,0.406,-4.83,1.89,-2.24,0.283,-0.603,-1.013
0.03,0.911,0.377,-0.91,2.1,-1.68,0.282,-0.603,-1.006
0.008,0.913,0.391,-3.08,-1.05,-1.96,0.279,-0.604,-1.006
0.0,0.932,0.399,-3.99,-1.54,-3.78,0.286,-0.609,-1.002
0.013,0.905,0.395,-0.21,-2.45,-4.2,0.284,-0.605,-1.001
0.004,0.837,0.409,3.5,-4.97,-4.06,0.284,-0.607,-1.004
-0.019,0.792,0.415,0.91,-6.3,-3.71,0.287,-0.609,-1.006
-0.012,0.802,0.411,-3.22,-5.46,-2.52,0.284,-0.605,-1.006
-0.001,0.858,0.386,-6.3,-5.11,-2.31,0.286,-0.607,-1.002
0.007,0.885,0.35,-2.87,-5.95,-0.77,0.293,-0.603,-1.007
0.013,0.849,0.324,9.03,-8.75,3.78,0.291,-0.609,-1.009
-0.022,0.764,0.398,8.89,-11.27,6.93,0.283,-0.605,-1.01
-0.044,0.753,0.45,4.41,-9.73,9.52,0.282,-0.605,-1.013
-0.046,0.808,0.483,-2.73,-7.42,10.5,0.282,-0.605,-1.008
-0.045,0.864,0.479,-8.47,-5.88,10.99,0.278,-0.602,-1.005
-0.056,0.941,0.467,-14.07,-5.81,8.82,0.278,-0.606,-0.999
-0.041,1.021,0.456,-14.98,-5.6,3.43,0.274,-0.605,-0.995
-0.04,1.084,0.463,-9.87,-6.37,0.84,0.278,-0.604,-0.997
-0.041,1.091,0.446,-2.45,-5.88,-0.7,0.275,-0.607,-0.996
-0.01,1.064,0.44,5.25,-4.13,-0.63,0.282,-0.604,-0.998
0.007,1.023,0.417,12.11,-3.36,0.77,0.279,-0.605,-0.999
0.001,0.969,0.432,14.21,-2.45,1.19,0.279,-0.609,-1.002
-0.027,0.952,0.444,9.52,-0.42,-0.28,0.28,-0.61,-1.002
-0.028,0.94,0.402,10.78,2.45,-3.29,0.281,-0.604,-1.004
-0.019,0.864,0.395,13.23,0.21,-4.55,0.281,-0.605,-1.01
-0.026,0.851,0.435,12.53,-1.26,-5.18,0.282,-0.605,-1.009
-0.042,0.865,0.429,13.37,-2.24,-5.88,0.281,-0.606,-1.007
-0.039,0.888,0.406,17.64,-2.73,-5.53,0.288,-0.606,-1.011
-0.05,0.825,0.387,21.91,-2.87,-6.65,0.292,-0.604,-1.014
-0.091,0.787,0.393,18.41,-3.78,-7.49,0.288,-0.603,-1.016
-0.086,0.786,0.379,10.99,-1.54,-7.07,0.292,-0.606,-1.023
-0.057,0.798,0.378,7.21,-1.96,-5.39,0.29,-0.609,-1.027
-0.075,0.844,0.396,4.41,-2.31,-4.55,0.292,-0.603,-1.022
-0.044,0.869,0.401,2.59,0.14,-4.55,0.288,-0.604,-1.029
-0.026,0.856,0.414,5.32,1.19,-3.5,0.292,-0.602,-1.03
-0.049,0.825,0.43,7.42,1.33,-2.38,0.291,-0.602,-1.027
-0.064,0.827,0.448,6.16,4.06,-1.54,0.286,-0.604,-1.027
-0.055,0.835,0.466,4.48,6.58,-1.47,0.293,-0.607,-1.023
-0.066,0.846,0.469,3.15,6.93,-2.03,0.289,-0.603,-1.029
-0.07,0.853,0.474,2.17,8.54,-3.01,0.289,-0.599,-1.025
-0.066,0.886,0.469,2.38,10.01,-4.55,0.291,-0.604,-1.029
-0.038,0.909,0.448,6.72,11.2,-5.88,0.294,-0.601,-1.025
-0.012,0.891,0.451,13.02,10.85,-7.0,0.299,-0.601,-1.032
-0.015,0.848,0.475,18.48,11.62,-10.01,0.299,-0.597,-1.031
-0.043,0.78,0.488,16.73,13.86,-11.55,0.307,-0.602,-1.032
-0.043,0.767,0.444,15.19,17.01,-12.04,0.302,-0.601,-1.033
-0.022,0.787,0.414,14.56,19.32,-11.48,0.304,-0.6,-1.036
0.002,0.821,0.397,16.52,19.95,-11.55,0.309,-0.595,-1.031
-0.001,0.797,0.387,19.6,19.46,-11.34,0.314,-0.598,-1.035
-0.026,0.769,0.391,19.74,20.02,-12.04,0.31,-0.597,-1.034
-0.033,0.761,0.382,16.94,21.84,-14.49,0.314,-0.59,-1.041
-0.036,0.72,0.357,16.66,22.12,-16.94,0.32,-0.593,-1.034
-0.051,0.665,0.352,14.28,19.67,-12.81,0.319,-0.592,-1.037
-0.079,0.669,0.362,9.66,16.94,-10.85,0.32,-0.594,-1.039
-0.122,0.681,0.376,7.14,13.65,-8.54,0.324,-0.591,-1.039
-0.177,0.698,0.36,1.47,11.69,-5.74,0.325,-0.592,-1.041
-0.188,0.738,0.29,-4.06,12.32,-2.94,0.322,-0.595,-1.031
-0.198,0.742,0.246,-9.03,9.73,-0.35,0.323,-0.594,-1.031
-0.219,0.719,0.269,-17.92,4.76,3.22,0.323,-0.593,-1.033
-0.212,0.809,0.352,-28.91,2.38,12.88,0.322,-0.597,-1.028
-0.204,1.002,0.457,-33.74,2.17,16.17,0.318,-0.595,-1.023
-0.137,1.117,0.324,-26.04,4.06,16.52,0.321,-0.59,-1.02
-0.037,1.078,0.267,-14.21,-0.49,9.24,0.319,-0.598,-1.021
-0.007,0.894,0.299,-1.96,-12.32,3.92,0.315,-0.594,-1.019
-0.064,0.715,0.372,-0.35,-26.11,1.4,0.314,-0.596,-1.021
-0.077,0.72,0.483,-15.82,-30.73,1.82,0.309,-0.592,-1.012
-0.022,0.911,0.454,-32.13,-28.28,1.61,0.308,-0.593,-1.015
0.011,1.066,0.317,-27.86,-27.51,-1.19,0.308,-0.596,-1.014
0.025,1.046,0.234,-9.66,-30.24,-2.03,0.308,-0.592,-1.009
0.065,0.952,0.346,2.1,-36.54,0.84,0.311,-0.596,-1.015
0.064,0.926,0.499,0.07,-36.26,-1.19,0.312,-0.599,-1.015
0.014,0.969,0.486,-2.31,-32.06,-6.65,0.306,-0.597,-1.017
0.014,0.978,0.463,-1.89,-28.98,-14.14,0.308,-0.598,-1.006
0.021,0.958,0.467,1.75,-29.96,-20.02,0.309,-0.596,-1.022
0.035,0.918,0.506,8.47,-32.2,-22.05,0.31,-0.594,-1.017
0.072,0.811,0.547,15.26,-33.81,-23.87,0.316,-0.593,-1.022
0.097,0.752,0.584,7.07,-36.96,-31.01,0.315,-0.594,-1.024
0.071,0.731,0.568,-0.07,-38.71,-38.15,0.315,-0.591,-1.025
0.037,0.707,0.543,-6.09,-38.43,-40.95,0.32,-0.586,-1.029
0.076,0.768,0.514,-11.9,-40.04,-40.67,0.328,-0.588,-1.026
0.066,0.816,0.536,-8.26,-46.9,-38.85,0.329,-0.582,-1.03
0.061,0.831,0.564,5.25,-49.21,-32.62,0.333,-0.582,-1.03
0.138,0.857,0.456,17.92,-41.86,-26.95,0.334,-0.575,-1.033
0.17,0.871,0.319,20.93,-49.49,-28.56,0.336,-0.58,-1.039
0.054,0.827,0.333,19.95,-58.17,-32.48,0.336,-0.577,-1.042
0.028,0.785,0.368,20.65,-55.37,-31.78,0.333,-0.576,-1.042
0.111,0.827,0.423,20.51,-47.25,-30.73,0.334,-0.575,-1.047
0.199,0.936,0.498,25.34,-42.98,-37.31,0.34,-0.573,-1.049
0.199,0.994,0.551,40.11,-41.02,-42.98,0.34,-0.565,-1.063
0.162,1.002,0.57,59.36,-38.78,-43.68,0.342,-0.562,-1.073
0.106,0.948,0.63,71.399,-38.5,-43.89,0.345,-0.559,-1.072
0.09,0.833,0.669,72.31,-35.14,-45.85,0.35,-0.551,-1.087
0.185,0.66,0.714,52.99,-28.14,-45.22,0.351,-0.545,-1.088
0.279,0.617,0.665,36.89,-23.24,-39.2,0.354,-0.54,-1.097
0.186,0.66,0.722,28.63,-25.83,-33.88,0.351,-0.533,-1.103
0.074,0.627,0.942,42.84,-23.87,-18.13,0.352,-0.536,-1.106
0.133,0.496,1.052,60.899,-8.47,2.66,0.349,-0.528,-1.112
0.222,0.403,1.102,48.86,3.64,13.16,0.338,-0.521,-1.121
0.287,0.469,1.138,42.35,16.03,28.84,0.337,-0.521,-1.126
0.325,0.495,1.137,58.659,22.61,47.04,0.333,-0.515,-1.127
0.333,0.44,1.116,80.22,24.36,69.3,0.326,-0.515,-1.126
0.356,0.392,0.965,77.419,27.09,75.53,0.319,-0.51,-1.136
0.428,0.387,0.849,63.77,24.64,81.62,0.31,-0.499,-1.14
0.432,0.471,0.759,52.919,18.2,93.169,0.302,-0.505,-1.145
0.397,0.637,0.708,62.72,9.38,101.36,0.285,-0.5,-1.143
0.324,0.784,0.716,91.07,-2.94,106.26,0.276,-0.5,-1.15
0.256,0.821,0.748,129.78,-10.99,108.85,0.259,-0.486,-1.166
0.208,0.718,0.862,164.08,-21.7,105.0,0.248,-0.476,-1.175
0.162,0.565,0.946,160.02,-26.6,100.59,0.237,-0.465,-1.182
0.07,0.475,1.011,132.65,-30.1,91.419,0.215,-0.449,-1.194
0.025,0.424,1.032,101.22,-28.98,82.389,0.209,-0.443,-1.202
0.011,0.477,1.001,70.35,-23.8,74.48,0.191,-0.43,-1.199
0.05,0.692,1.043,41.86,-16.24,57.96,0.186,-0.427,-1.203
0.072,0.968,1.085,25.41,-1.96,31.43,0.179,-0.428,-1.206
0.1,0.733,1.058,36.47,-0.98,18.2,0.173,-0.417,-1.205
0.133,0.545,1.028,49.21,1.75,28.98,0.167,-0.415,-1.2
0.142,0.346,0.977,27.37,6.72,16.17,0.165,-0.411,-1.202
0.122,0.325,0.943,8.89,8.61,15.89,0.167,-0.414,-1.209
0.09,0.322,0.926,-4.83,9.03,15.61,0.166,-0.409,-1.202
0.045,0.347,0.949,-16.8,9.66,15.68,0.162,-0.413,-1.203
-0.005,0.43,0.961,-25.62,11.06,15.4,0.162,-0.413,-1.2
-0.052,0.514,0.966,-21.28,11.48,15.26,0.157,-0.418,-1.197
-0.095,0.541,0.975,-6.86,10.78,15.75,0.156,-0.415,-1.197
-0.129,0.491,0.96,11.2,11.06,14.28,0.159,-0.414,-1.199
-0.136,0.437,0.943,15.96,11.13,13.02,0.159,-0.411,-1.198
-0.141,0.407,0.921,16.38,10.36,14.63,0.159,-0.41,-1.201
-0.146,0.372,0.91,14.14,9.66,10.36,0.158,-0.41,-1.207
-0.143,0.341,0.911,10.36,8.61,5.53,0.156,-0.409,-1.213
-0.134,0.331,0.915,7.14,7.35,2.59,0.157,-0.407,-1.208
-0.128,0.326,0.929,6.09,4.48,-0.49,0.159,-0.408,-1.207
-0.114,0.319,0.947,7.07,3.78,-1.75,0.162,-0.409,-1.214
-0.095,0.305,0.954,6.72,3.36,-2.1,0.162,-0.405,-1.21
-0.074,0.297,0.951,2.73,3.71,-2.17,0.159,-0.411,-1.207
-0.056,0.315,0.942,-4.06,4.06,-2.17,0.158,-0.407,-1.204
-0.048,0.348,0.938,-10.92,4.06,-1.4,0.162,-0.404,-1.201
-0.041,0.382,0.929,-14.7,5.25,-0.98,0.158,-0.411,-1.202
-0.033,0.409,0.918,-16.03,5.46,-0.42,0.161,-0.408,-1.203
-0.029,0.436,0.907,-15.82,5.32,0.0,0.164,-0.41,-1.199
-0.027,0.457,0.899,-12.81,4.2,0.28,0.161,-0.411,-1.198
-0.032,0.468,0.898,-8.05,2.45,0.49,0.157,-0.416,-1.202
-0.037,0.455,0.901,1.75,1.75,0.28,0.163,-0.413,-1.204
-0.04,0.433,0.902,7.07,1.05,0.0,0.156,-0.414,-1.2
-0.046,0.411,0.906,8.89,-0.14,-0.49,0.164,-0.416,-1.202
-0.055,0.382,0.917,9.31,-0.91,-0.7,0.162,-0.413,-1.195
-0.059,0.368,0.921,8.05,-1.19,-0.28,0.165,-0.412,-1.199
-0.064,0.361,0.926,5.18,-1.19,-0.35,0.165,-0.411,-1.197
-0.065,0.36,0.924,0.42,-1.12,-0.63,0.163,-0.412,-1.197
-0.063,0.379,0.918,-1.96,-1.19,-0.77,0.169,-0.412,-1.205
-0.06,0.397,0.91,-3.85,-1.12,-1.26,0.166,-0.411,-1.204
-0.057,0.41,0.907,-4.62,-1.12,-1.82,0.163,-0.409,-1.199
-0.052,0.42,0.903,-4.13,-1.4,-1.89,0.163,-0.413,-1.196
-0.049,0.426,0.902,-2.8,-1.4,-1.75,0.163,-0.414,-1.199
-0.049,0.427,0.904,-1.4,-1.4,-1.47,0.165,-0.413,-1.196
-0.049,0.42,0.904,0.35,-0.84,-1.19,0.165,-0.412,-1.194
-0.047,0.414,0.903,2.24,-0.14,0.07,0.163,-0.415,-1.197
-0.047,0.407,0.91,2.17,0.21,0.98,0.164,-0.415,-1.198
-0.052,0.406,0.911,2.03,0.91,1.54,0.164,-0.414,-1.204
-0.055,0.399,0.91,2.24,1.47,1.96,0.166,-0.408,-1.201
-0.05,0.397,0.915,2.03,2.45,2.03,0.166,-0.413,-1.205
-0.048,0.397,0.909,1.05,2.31,1.75,0.159,-0.413,-1.206
-0.049,0.401,0.914,0.91,2.03,1.75,0.166,-0.414,-1.201
-0.047,0.401,0.918,2.1,1.26,1.61,0.164,-0.415,-1.202
-0.044,0.396,0.918,2.8,0.56,1.68,0.166,-0.411,-1.199
-0.042,0.389,0.915,2.66,-0.49,1.26,0.163,-0.41,-1.204
-0.049,0.388,0.913,2.24,-1.4,1.26,0.165,-0.408,-1.197
-0.056,0.389,0.91,1.68,-1.47,1.19,0.159,-0.414,-1.204
-0.056,0.389,0.912,1.05,-1.4,0.84,0.162,-0.411,-1.202
-0.055,0.396,0.908,0.35,-1.26,0.84,0.161,-0.411,-1.21
-0.055,0.406,0.908,0.56,-1.61,0.56,0.166,-0.411,-1.204
-0.052,0.402,0.91,1.61,-1.4,1.12,0.162,-0.41,-1.199
-0.048,0.4,0.91,1.89,-1.54,1.12,0.167,-0.413,-1.196
-0.048,0.397,0.91,1.75,-1.47,0.98,0.165,-0.412,-1.203
-0.049,0.396,0.914,2.31,-1.68,1.12,0.165,-0.408,-1.198
-0.049,0.391,0.915,2.52,-1.33,1.4,0.167,-0.406,-1.205
-0.047,0.387,0.917,2.1,-1.19,1.26,0.163,-0.41,-1.207
-0.046,0.389,0.915,1.12,-1.19,1.33,0.16,-0.409,-1.205
-0.048,0.394,0.914,0.91,-1.12,1.47,0.161,-0.413,-1.202
-0.047,0.394,0.914,0.7,-1.19,1.19,0.162,-0.413,-1.201
-0.044,0.399,0.912,0.56,-1.33,0.77,0.16,-0.409,-1.201
-0.045,0.401,0.913,0.56,-1.33,0.49,0.163,-0.413,-1.198
-0.047,0.4,0.915,0.63,-1.54,0.28,0.16,-0.408,-1.2
-0.049,0.397,0.915,0.7,-1.61,0.21,0.163,-0.409,-1.198
-0.05,0.397,0.914,1.05,-1.68,0.21,0.164,-0.41,-1.198
-0.052,0.395,0.911,1.61,-1.89,0.28,0.166,-0.408,-1.2
-0.055,0.391,0.915,2.38,-1.89,0.35,0.165,-0.408,-1.197
-0.054,0.395,0.917,1.89,-1.54,0.84,0.161,-0.404,-1.199
-0.055,0.395,0.914,2.1,-1.82,0.7,0.163,-0.409,-1.202
-0.056,0.392,0.911,2.8,-1.54,0.49,0.168,-0.405,-1.205
-0.052,0.387,0.915,2.66,-1.47,-0.21,0.168,-0.404,-1.198
-0.05,0.384,0.917,2.31,-1.33,-0.63,0.166,-0.403,-1.205
-0.051,0.387,0.926,2.24,-1.19,-0.07,0.164,-0.407,-1.207
-0.047,0.384,0.926,2.31,-1.12,-0.21,0.163,-0.404,-1.202
