ax,ay,az,gx,gy,gz,mx,my,mz
-0.911,0.43,0.111,-2.31,1.12,-2.87,-0.138,-0.403,-0.876
-0.875,0.42,0.104,-23.52,5.74,-8.4,-0.14,-0.4,-0.875
-0.895,0.504,0.106,-51.94,10.57,-11.9,-0.142,-0.397,-0.874
-0.866,0.633,0.076,-45.99,10.43,-12.53,-0.136,-0.399,-0.877
-0.886,0.699,0.082,-24.22,7.0,-10.57,-0.139,-0.4,-0.867
-0.844,0.686,0.072,0.49,4.55,-10.5,-0.135,-0.404,-0.868
-0.81,0.627,0.069,17.36,1.96,-13.79,-0.136,-0.401,-0.871
-0.789,0.565,0.081,21.49,0.21,-18.83,-0.13,-0.406,-0.87
-0.766,0.546,0.087,8.75,0.77,-28.42,-0.136,-0.409,-0.873
-0.752,0.586,0.071,0.14,1.33,-34.93,-0.131,-0.411,-0.871
-0.746,0.601,0.047,-3.43,0.91,-40.18,-0.13,-0.414,-0.87
-0.735,0.61,0.028,-6.09,0.07,-44.66,-0.122,-0.419,-0.873
-0.736,0.63,0.015,-10.22,-1.26,-50.05,-0.116,-0.418,-0.869
-0.731,0.636,0.014,-12.25,-2.38,-56.28,-0.113,-0.424,-0.871
-0.737,0.637,0.004,-11.97,-3.43,-61.39,-0.108,-0.439,-0.879
-0.772,0.665,0.005,-11.55,-4.69,-66.92,-0.103,-0.435,-0.871
-0.765,0.673,0.01,-11.97,-3.92,-70.0,-0.099,-0.446,-0.872
-0.714,0.655,0.0,-14.98,-3.08,-74.55,-0.089,-0.456,-0.868
-0.676,0.656,-0.02,-22.82,-3.57,-81.13,-0.084,-0.456,-0.871
-0.661,0.681,-0.034,-30.1,-5.67,-88.76,-0.067,-0.466,-0.866
-0.639,0.703,-0.033,-31.15,-8.19,-95.27,-0.063,-0.468,-0.858
-0.623,0.736,-0.055,-17.01,-13.37,-102.34,-0.046,-0.476,-0.85
-0.661,0.765,-0.034,-3.57,-15.96,-103.95,-0.037,-0.483,-0.853
-0.694,0.739,-0.033,5.25,-15.47,-104.3,-0.023,-0.496,-0.858
-0.688,0.702,-0.068,4.48,-13.16,-102.83,-0.013,-0.502,-0.856
-0.653,0.678,-0.084,-3.08,-11.34,-100.94,-0.011,-0.512,-0.853
-0.611,0.681,-0.074,-18.76,-11.83,-100.17,0.012,-0.515,-0.85
-0.587,0.742,-0.022,-26.39,-12.67,-98.98,0.021,-0.518,-0.847
-0.593,0.796,-0.009,-24.71,-13.51,-97.02,0.039,-0.527,-0.839
-0.603,0.836,-0.019,-16.66,-13.65,-94.29,0.048,-0.525,-0.84
-0.605,0.835,-0.045,-8.75,-13.02,-92.54,0.065,-0.531,-0.838
-0.59,0.804,-0.066,-4.9,-12.39,-90.72,0.074,-0.537,-0.838
-0.521,0.798,-0.052,-9.45,-12.18,-88.69,0.089,-0.541,-0.832
-0.503,0.843,0.006,-14.07,-10.92,-87.92,0.094,-0.547,-0.835
-0.517,0.889,0.029,-14.07,-8.96,-86.24,0.106,-0.544,-0.833
-0.513,0.91,0.002,-9.94,-6.37,-84.28,0.124,-0.546,-0.827
-0.485,0.907,-0.035,-4.69,-5.04,-79.59,0.132,-0.553,-0.829
-0.46,0.891,-0.024,1.4,-5.25,-76.65,0.147,-0.549,-0.827
-0.445,0.904,0.005,0.49,-4.62,-76.09,0.152,-0.548,-0.831
-0.422,0.92,-0.008,0.77,-3.85,-75.32,0.163,-0.552,-0.82
-0.408,0.949,-0.03,5.74,-3.5,-72.87,0.173,-0.556,-0.826
-0.398,0.956,-0.033,10.99,-3.22,-71.82,0.178,-0.556,-0.825
-0.396,0.945,-0.057,12.81,-3.01,-70.28,0.191,-0.553,-0.83
-0.371,0.946,-0.083,10.01,-1.47,-69.65,0.198,-0.557,-0.83
-0.328,0.952,-0.097,7.77,-2.24,-67.55,0.212,-0.555,-0.831
-0.275,0.972,-0.063,9.59,-3.5,-66.08,0.217,-0.558,-0.834
-0.263,0.965,-0.058,12.04,-4.55,-64.96,0.223,-0.559,-0.839
-0.251,0.953,-0.072,9.73,-5.11,-63.56,0.238,-0.559,-0.837
-0.24,0.95,-0.093,1.33,-5.6,-63.14,0.243,-0.56,-0.838
-0.198,0.987,-0.099,-0.63,-5.32,-61.6,0.254,-0.56,-0.839
-0.14,1.057,-0.081,8.26,-7.7,-61.74,0.262,-0.56,-0.837
-0.133,1.057,-0.062,23.03,-10.08,-62.51,0.272,-0.561,-0.836
-0.119,1.013,-0.034,33.11,-12.32,-62.09,0.277,-0.557,-0.844
-0.091,0.997,-0.013,35.28,-11.34,-62.3,0.284,-0.558,-0.844
-0.055,1.003,0.009,32.9,-8.33,-62.65,0.297,-0.559,-0.854
-0.034,1.026,-0.007,29.05,-6.93,-64.12,0.299,-0.562,-0.862
0.0,1.036,-0.028,33.88,-8.33,-65.45,0.313,-0.556,-0.864
0.031,1.008,-0.038,42.21,-10.01,-65.52,0.319,-0.554,-0.867
0.047,0.963,0.012,47.11,-13.86,-65.52,0.323,-0.554,-0.873
0.049,0.939,0.088,43.89,-14.07,-65.31,0.336,-0.552,-0.887
0.057,0.961,0.112,34.93,-11.55,-65.31,0.344,-0.552,-0.886
0.073,0.974,0.145,24.29,-7.77,-66.22,0.355,-0.55,-0.887
0.082,1.021,0.114,21.7,-5.32,-66.99,0.36,-0.548,-0.89
0.114,1.037,0.096,26.6,-5.32,-67.06,0.37,-0.546,-0.889
0.164,1.02,0.082,30.03,-7.0,-68.18,0.381,-0.541,-0.896
0.196,0.982,0.066,30.59,-8.19,-69.09,0.391,-0.539,-0.9
0.199,1.0,0.093,28.63,-9.94,-68.18,0.401,-0.529,-0.91
0.199,1.02,0.134,26.88,-9.94,-69.09,0.406,-0.525,-0.912
0.212,0.99,0.16,28.14,-11.34,-68.81,0.419,-0.523,-0.914
0.239,0.95,0.154,24.01,-10.15,-69.16,0.424,-0.521,-0.917
0.277,0.969,0.172,21.0,-9.59,-67.48,0.43,-0.514,-0.918
0.321,1.011,0.172,27.3,-7.7,-66.29,0.438,-0.512,-0.92
0.348,0.984,0.172,37.24,-8.96,-64.82,0.443,-0.507,-0.927
0.34,0.943,0.203,36.68,-11.41,-65.45,0.451,-0.501,-0.93
0.349,0.94,0.205,15.47,-9.52,-67.76,0.46,-0.5,-0.935
0.399,0.997,0.157,14.21,-6.58,-68.81,0.467,-0.491,-0.936
0.419,1.006,0.173,24.57,-6.86,-69.79,0.471,-0.487,-0.936
0.416,0.926,0.233,37.73,-9.66,-70.7,0.476,-0.486,-0.942
0.438,0.873,0.241,40.18,-8.26,-69.37,0.488,-0.474,-0.952
0.461,0.854,0.222,33.53,-4.76,-70.56,0.491,-0.472,-0.95
0.488,0.76,0.229,31.71,-3.08,-67.69,0.501,-0.464,-0.956
0.51,0.687,0.252,29.68,-2.87,-62.37,0.503,-0.458,-0.96
0.524,0.691,0.254,21.91,-2.59,-57.82,0.508,-0.453,-0.957
0.55,0.721,0.236,19.88,-2.66,-52.57,0.516,-0.444,-0.969
0.566,0.71,0.256,22.12,-3.92,-47.46,0.521,-0.441,-0.963
0.559,0.653,0.294,23.59,-5.25,-42.21,0.522,-0.436,-0.964
0.577,0.614,0.334,14.56,-3.01,-32.97,0.524,-0.431,-0.959
0.593,0.647,0.342,7.56,-1.75,-26.81,0.53,-0.425,-0.972
0.59,0.668,0.325,6.16,-0.98,-22.82,0.533,-0.428,-0.972
0.602,0.65,0.307,9.45,-2.03,-17.71,0.534,-0.424,-0.972
0.602,0.649,0.32,11.83,-3.36,-12.67,0.53,-0.421,-0.972
0.583,0.661,0.327,7.21,-4.06,-7.56,0.532,-0.417,-0.975
0.572,0.669,0.351,2.52,-4.62,-4.76,0.535,-0.418,-0.978
0.578,0.663,0.358,-5.18,-3.5,-2.59,0.531,-0.419,-0.975
0.578,0.682,0.339,-10.99,-1.96,-0.77,0.535,-0.418,-0.974
0.59,0.713,0.308,-7.49,-0.84,1.96,0.529,-0.417,-0.974
0.599,0.711,0.285,0.77,-1.82,5.18,0.527,-0.423,-0.974
0.598,0.711,0.282,1.82,-3.64,8.05,0.53,-0.424,-0.966
0.572,0.754,0.285,-7.42,-2.94,6.44,0.526,-0.422,-0.98
0.583,0.774,0.296,-10.22,-1.75,5.67,0.526,-0.425,-0.964
0.593,0.795,0.3,-4.69,-1.33,4.83,0.53,-0.422,-0.969
0.589,0.793,0.294,5.67,-1.68,3.43,0.525,-0.428,-0.974
0.594,0.757,0.284,14.28,-3.36,2.73,0.526,-0.425,-0.971
0.598,0.674,0.31,13.58,-3.99,2.52,0.529,-0.426,-0.972
0.599,0.656,0.328,4.06,-3.08,3.08,0.53,-0.428,-0.976
0.6,0.688,0.325,-4.83,-1.47,3.29,0.529,-0.43,-0.972
0.606,0.749,0.312,-7.7,0.21,3.29,0.53,-0.431,-0.97
0.618,0.781,0.299,-3.99,0.0,2.31,0.532,-0.43,-0.972
0.614,0.761,0.299,3.29,-1.47,0.21,0.529,-0.423,-0.973
0.601,0.725,0.307,8.26,-1.96,-1.12,0.527,-0.424,-0.969
0.595,0.695,0.302,5.46,-1.82,-1.75,0.527,-0.424,-0.978
0.593,0.687,0.298,1.05,-2.1,-2.1,0.531,-0.424,-0.967
0.582,0.695,0.302,-2.1,-2.45,-2.03,0.523,-0.426,-0.967
0.568,0.711,0.299,-3.22,-2.59,-1.19,0.527,-0.423,-0.969
0.562,0.739,0.292,-2.38,-2.52,-1.05,0.528,-0.422,-0.964
0.563,0.732,0.291,1.4,-3.29,0.42,0.529,-0.43,-0.968
0.569,0.681,0.289,5.25,-4.48,1.4,0.524,-0.424,-0.966
0.56,0.681,0.299,1.68,-4.48,2.87,0.523,-0.427,-0.973
0.554,0.706,0.301,-2.52,-3.29,3.08,0.521,-0.425,-0.978
0.569,0.719,0.291,-1.05,-3.08,3.99,0.522,-0.423,-0.975
0.578,0.702,0.297,2.24,-3.85,4.83,0.522,-0.426,-0.976
0.576,0.691,0.309,2.17,-4.41,5.67,0.524,-0.426,-0.975
0.587,0.717,0.314,-4.34,-3.29,5.11,0.524,-0.429,-0.971
0.585,0.733,0.316,-7.35,-2.94,4.06,0.528,-0.428,-0.973
0.585,0.76,0.316,-7.35,-2.45,3.08,0.527,-0.429,-0.968
0.584,0.769,0.301,-3.43,-2.38,1.82,0.527,-0.428,-0.972
0.587,0.766,0.297,2.1,-3.22,1.26,0.521,-0.432,-0.974
0.6,0.737,0.298,4.9,-3.71,0.28,0.519,-0.43,-0.975
0.592,0.734,0.305,2.38,-3.01,-0.98,0.525,-0.426,-0.973
0.601,0.74,0.3,-1.61,-2.73,-1.82,0.527,-0.432,-0.968
0.591,0.753,0.301,-1.12,-2.59,-1.68,0.526,-0.428,-0.977
0.583,0.741,0.306,1.12,-2.73,-2.1,0.526,-0.435,-0.971
0.585,0.724,0.311,2.24,-2.8,-1.68,0.527,-0.437,-0.973
0.582,0.719,0.316,1.68,-2.45,-1.47,0.528,-0.431,-0.97
0.58,0.719,0.315,0.35,-2.52,-1.12,0.524,-0.431,-0.97
0.569,0.721,0.312,-1.61,-2.52,-0.56,0.53,-0.429,-0.974
0.569,0.727,0.316,-1.75,-2.24,0.21,0.529,-0.429,-0.97
0.567,0.739,0.32,-1.75,-2.52,0.77,0.529,-0.431,-0.975
0.573,0.747,0.315,-1.54,-1.89,0.28,0.531,-0.432,-0.973
0.579,0.747,0.309,-0.28,-1.4,-0.49,0.529,-0.431,-0.968
0.571,0.735,0.311,2.87,-2.1,-0.56,0.531,-0.426,-0.975
0.57,0.726,0.298,4.48,-2.03,-0.21,0.528,-0.426,-0.969
0.593,0.724,0.297,2.52,-1.96,-0.14,0.529,-0.427,-0.976
0.587,0.726,0.31,0.21,-2.73,-0.49,0.531,-0.429,-0.976
0.581,0.733,0.31,-0.14,-3.15,-0.56,0.531,-0.43,-0.978
0.581,0.737,0.309,1.96,-3.29,-0.21,0.531,-0.427,-0.975
0.584,0.722,0.313,5.46,-3.78,0.84,0.529,-0.428,-0.973
0.588,0.717,0.314,4.62,-3.92,1.05,0.525,-0.431,-0.972
0.578,0.726,0.309,0.98,-3.85,0.21,0.525,-0.427,-0.979
0.57,0.726,0.304,0.14,-3.36,-0.07,0.522,-0.428,-0.975
0.566,0.727,0.301,1.75,-3.5,0.63,0.526,-0.43,-0.978
0.564,0.722,0.3,2.66,-3.43,1.19,0.532,-0.428,-0.981
0.569,0.71,0.31,1.12,-3.15,1.82,0.526,-0.426,-0.979
0.569,0.721,0.314,-1.19,-2.59,2.17,0.524,-0.432,-0.979
0.566,0.734,0.308,-2.59,-1.82,1.96,0.529,-0.43,-0.976
0.573,0.735,0.306,-2.17,-1.68,1.82,0.523,-0.429,-0.978
0.575,0.738,0.311,-0.56,-1.82,1.68,0.524,-0.43,-0.98
0.578,0.745,0.309,-1.33,-1.82,0.35,0.525,-0.429,-0.976
0.579,0.735,0.306,-0.98,-1.96,-0.84,0.528,-0.432,-0.972
0.583,0.709,0.302,0.49,-2.38,-1.05,0.522,-0.433,-0.975
0.595,0.7,0.308,0.35,-2.8,-0.91,0.527,-0.428,-0.974
0.599,0.708,0.316,-0.98,-3.01,-1.12,0.524,-0.426,-0.971
0.597,0.722,0.32,-1.33,-3.01,-1.4,0.527,-0.428,-0.975
0.59,0.738,0.314,-0.7,-2.52,-0.98,0.526,-0.431,-0.971
0.576,0.723,0.293,0.56,-2.59,-1.26,0.525,-0.431,-0.974
0.575,0.722,0.288,0.49,-2.8,-0.84,0.523,-0.429,-0.975
0.57,0.717,0.292,0.63,-3.08,-0.84,0.53,-0.424,-0.973
0.574,0.713,0.302,0.49,-3.22,-0.14,0.524,-0.425,-0.973
0.569,0.721,0.314,-1.12,-3.01,0.14,0.53,-0.427,-0.973
0.553,0.744,0.313,-1.68,-2.45,0.56,0.522,-0.432,-0.97
0.571,0.751,0.303,0.07,-2.03,0.7,0.526,-0.426,-0.972
0.575,0.743,0.3,0.84,-2.52,1.26,0.524,-0.427,-0.971
0.58,0.726,0.305,0.42,-3.01,1.26,0.527,-0.428,-0.979
0.575,0.725,0.316,-1.54,-3.29,1.26,0.526,-0.431,-0.976
0.575,0.738,0.329,-2.59,-3.57,1.33,0.524,-0.429,-0.969
0.579,0.749,0.34,0.14,-3.92,1.12,0.526,-0.429,-0.969
0.574,0.749,0.341,1.47,-3.92,0.63,0.527,-0.427,-0.978
0.584,0.731,0.332,3.36,-3.29,0.42,0.527,-0.427,-0.972
0.586,0.724,0.326,3.85,-3.36,0.35,0.528,-0.429,-0.974
0.586,0.716,0.317,3.15,-3.01,-0.42,0.524,-0.427,-0.969
0.594,0.721,0.308,2.52,-2.87,-0.35,0.525,-0.426,-0.969
0.578,0.724,0.302,2.03,-3.15,-0.28,0.525,-0.426,-0.979
0.584,0.718,0.307,2.87,-3.15,0.7,0.525,-0.427,-0.974
0.581,0.718,0.317,2.17,-3.29,1.47,0.526,-0.429,-0.985
0.586,0.732,0.318,0.98,-2.66,3.15,0.529,-0.43,-0.978
0.591,0.743,0.313,0.63,-2.24,5.53,0.528,-0.432,-0.974
0.588,0.75,0.302,-0.98,-2.66,11.62,0.529,-0.43,-0.978
0.583,0.762,0.31,-3.43,-2.87,16.03,0.528,-0.434,-0.978
0.598,0.768,0.324,-7.28,-2.59,19.81,0.527,-0.435,-0.975
0.602,0.785,0.346,-10.29,-2.31,23.24,0.521,-0.442,-0.974
0.595,0.788,0.364,-8.4,-1.96,27.02,0.522,-0.438,-0.971
0.594,0.719,0.38,2.17,-1.4,35.56,0.516,-0.444,-0.979
0.592,0.725,0.374,3.22,-0.21,43.26,0.511,-0.448,-0.971
0.585,0.778,0.346,-7.21,1.68,48.649,0.511,-0.452,-0.969
0.569,0.798,0.34,-17.57,2.52,50.61,0.504,-0.457,-0.972
0.528,0.806,0.328,-18.55,2.59,54.25,0.503,-0.459,-0.97
0.485,0.8,0.308,-11.06,1.82,62.929,0.498,-0.467,-0.968
0.444,0.796,0.271,-3.01,0.56,69.72,0.489,-0.473,-0.97
0.377,0.761,0.28,-1.61,0.56,76.72,0.486,-0.474,-0.967
0.334,0.773,0.298,-4.62,2.59,83.929,0.476,-0.483,-0.963
0.306,0.82,0.269,-10.43,6.3,89.74,0.469,-0.493,-0.96
0.31,0.821,0.279,-10.22,6.93,95.899,0.456,-0.504,-0.959
0.277,0.802,0.289,-6.72,6.09,105.21,0.446,-0.51,-0.964
0.172,0.841,0.31,-5.11,7.28,111.72,0.431,-0.522,-0.958
0.151,0.86,0.28,-1.61,9.03,117.88,0.42,-0.524,-0.957
0.127,0.894,0.242,0.84,8.75,125.3,0.412,-0.53,-0.963
0.087,0.887,0.239,-0.56,6.79,127.82,0.39,-0.545,-0.959
0.065,0.895,0.268,-2.45,4.2,131.88,0.381,-0.545,-0.953
-0.02,0.905,0.287,0.35,0.84,136.08,0.36,-0.555,-0.957
-0.062,0.912,0.241,6.79,-0.7,138.32,0.35,-0.562,-0.949
-0.107,0.933,0.206,9.1,-4.13,140.63,0.327,-0.569,-0.956
-0.159,0.888,0.185,6.72,-8.26,139.37,0.305,-0.569,-0.96
-0.183,0.879,0.244,1.19,-9.73,140.91,0.264,-0.574,-0.958
-0.191,0.929,0.275,-3.99,-9.24,140.91,0.271,-0.574,-0.953
-0.255,0.981,0.259,4.76,-9.52,140.49,0.252,-0.579,-0.958
-0.312,0.964,0.211,12.67,-11.48,140.91,0.227,-0.585,-0.956
-0.35,0.931,0.2,14.49,-14.7,140.7,0.218,-0.581,-0.96
-0.402,0.933,0.244,10.99,-17.08,139.23,0.189,-0.58,-0.96
-0.427,0.949,0.3,6.3,-16.66,136.64,0.175,-0.579,-0.967
-0.443,0.987,0.302,0.98,-12.39,129.71,0.161,-0.576,-0.963
-0.451,0.941,0.234,6.51,-12.04,127.19,0.137,-0.576,-0.966
-0.466,0.875,0.219,13.23,-13.44,125.37,0.131,-0.574,-0.962
-0.475,0.808,0.243,13.16,-14.7,123.13,0.101,-0.57,-0.963
-0.498,0.779,0.26,5.53,-14.35,121.94,0.089,-0.567,-0.965
-0.516,0.709,0.22,-1.89,-14.49,120.61,0.083,-0.565,-0.965
-0.533,0.671,0.218,-3.01,-15.61,123.34,0.059,-0.559,-0.963
-0.592,0.772,0.248,-6.09,-14.35,130.13,0.049,-0.557,-0.964
-0.696,0.854,0.303,1.47,-12.6,131.18,0.026,-0.539,-0.959
-0.745,0.818,0.298,12.53,-12.74,134.05,0.015,-0.539,-0.963
-0.754,0.777,0.276,15.82,-14.14,134.68,-0.012,-0.525,-0.963
-0.753,0.744,0.271,10.01,-17.01,130.76,-0.024,-0.518,-0.96
-0.783,0.732,0.301,1.47,-18.06,119.77,-0.032,-0.51,-0.965
-0.828,0.776,0.32,-4.48,-14.49,108.36,-0.05,-0.499,-0.96
-0.815,0.772,0.244,1.68,-11.9,97.93,-0.059,-0.49,-0.958
-0.805,0.726,0.178,13.79,-14.0,89.95,-0.072,-0.48,-0.957
-0.818,0.649,0.147,21.84,-19.11,81.76,-0.081,-0.473,-0.955
-0.838,0.58,0.144,21.07,-23.1,73.5,-0.093,-0.464,-0.961
-0.856,0.551,0.153,17.92,-26.11,67.27,-0.1,-0.462,-0.967
-0.906,0.551,0.23,22.05,-28.14,59.639,-0.099,-0.46,-0.96
-0.859,0.5,0.213,21.21,-26.11,55.37,-0.11,-0.449,-0.961
-0.822,0.448,0.171,12.53,-24.64,53.69,-0.107,-0.447,-0.956
-0.817,0.454,0.148,-0.63,-22.82,52.22,-0.115,-0.438,-0.95
-0.833,0.507,0.21,-4.55,-21.28,49.909,-0.122,-0.437,-0.95
-0.838,0.521,0.218,0.63,-18.83,48.72,-0.124,-0.433,-0.95
-0.831,0.495,0.173,8.54,-18.2,47.67,-0.13,-0.427,-0.948
-0.845,0.469,0.16,6.93,-18.76,47.6,-0.135,-0.425,-0.947
-0.861,0.46,0.181,1.82,-19.6,46.27,-0.139,-0.415,-0.949
-0.878,0.425,0.183,-7.42,-18.27,42.35,-0.149,-0.416,-0.946
-0.889,0.413,0.185,-21.28,-16.52,39.13,-0.151,-0.411,-0.936
-0.866,0.436,0.158,-35.7,-13.65,36.33,-0.152,-0.406,-0.94
-0.848,0.484,0.133,-42.28,-13.3,33.6,-0.154,-0.403,-0.931
-0.866,0.496,0.116,-37.17,-18.06,31.57,-0.158,-0.395,-0.921
-0.883,0.472,0.127,-31.99,-21.0,30.59,-0.161,-0.391,-0.918
-0.88,0.456,0.12,-28.56,-22.89,27.86,-0.163,-0.386,-0.914
-0.878,0.454,0.109,-29.26,-23.66,24.92,-0.163,-0.377,-0.907
-0.868,0.455,0.091,-31.57,-23.8,22.19,-0.163,-0.378,-0.911
-0.855,0.422,0.072,-32.06,-25.48,19.39,-0.169,-0.374,-0.904
-0.902,0.443,0.117,-33.88,-24.92,15.68,-0.168,-0.375,-0.901
-0.921,0.427,0.085,-35.63,-21.07,11.76,-0.164,-0.365,-0.893
-0.912,0.379,0.015,-41.58,-17.99,10.08,-0.167,-0.367,-0.889
-0.92,0.316,-0.043,-53.76,-17.36,7.98,-0.173,-0.361,-0.881
-0.927,0.305,-0.034,-69.16,-15.26,8.75,-0.166,-0.358,-0.878
-0.902,0.394,0.065,-82.25,-9.73,8.47,-0.169,-0.355,-0.872
-0.853,0.396,0.061,-82.53,-7.77,5.67,-0.168,-0.35,-0.861
-0.84,0.395,0.027,-83.65,-5.6,4.55,-0.171,-0.343,-0.86
-0.832,0.422,0.002,-77.84,-5.04,5.53,-0.175,-0.336,-0.852
-0.854,0.443,-0.009,-64.47,-6.23,6.79,-0.169,-0.337,-0.85
-0.901,0.451,0.002,-51.45,-7.7,5.39,-0.172,-0.332,-0.841
-0.931,0.565,0.114,-49.14,-5.46,-0.84,-0.173,-0.329,-0.84
-0.951,0.428,0.341,-56.28,-2.94,-10.92,-0.171,-0.326,-0.834
-0.917,0.507,0.353,-100.38,8.89,-17.57,-0.173,-0.322,-0.834
-0.898,0.648,0.254,-86.59,13.3,-12.32,-0.174,-0.322,-0.831
-0.897,0.624,0.113,-45.99,8.75,-13.02,-0.174,-0.32,-0.83
-0.942,0.61,0.007,14.77,-1.68,-8.96,-0.173,-0.324,-0.83
-0.946,0.47,-0.055,51.379,-7.77,-7.56,-0.173,-0.319,-0.828
-0.982,0.364,-0.079,69.929,-13.02,-8.68,-0.167,-0.326,-0.835
-0.963,0.287,-0.107,68.95,-15.33,-10.43,-0.172,-0.328,-0.837
-0.919,0.32,-0.112,59.149,-17.57,-11.55,-0.173,-0.338,-0.838
-0.898,0.368,-0.092,65.8,-25.27,-10.78,-0.174,-0.34,-0.841
-0.911,0.299,-0.018,75.95,-28.14,-8.33,-0.164,-0.346,-0.839
-0.938,0.257,0.05,73.78,-27.16,-5.46,-0.16,-0.353,-0.841
-0.924,0.258,0.073,60.55,-21.35,-3.43,-0.159,-0.357,-0.847
-0.916,0.285,0.063,44.31,-15.89,-1.61,-0.158,-0.356,-0.854
-0.923,0.293,0.026,29.33,-11.69,-0.14,-0.161,-0.358,-0.853
-0.934,0.311,-0.021,3.36,-6.51,-0.91,-0.161,-0.361,-0.852
-0.943,0.379,-0.042,-5.25,-3.43,-2.45,-0.16,-0.356,-0.85
-0.937,0.416,-0.043,-0.91,-2.31,-3.36,-0.159,-0.361,-0.848
-0.936,0.401,-0.057,9.45,-2.87,-3.29,-0.163,-0.362,-0.852
-0.935,0.36,-0.036,14.84,-3.64,-2.66,-0.162,-0.359,-0.851
-0.942,0.347,0.002,12.6,-3.85,-2.38,-0.161,-0.361,-0.85
-0.941,0.369,0.071,8.82,-2.38,-0.49,-0.157,-0.363,-0.851
-0.943,0.391,0.06,9.59,-0.98,0.07,-0.161,-0.365,-0.851
-0.936,0.396,0.018,14.84,-0.7,0.07,-0.161,-0.362,-0.854
-0.931,0.389,-0.01,21.49,-2.17,0.42,-0.161,-0.361,-0.852
-0.936,0.359,0.0,21.07,-3.92,1.4,-0.16,-0.366,-0.858
-0.942,0.32,0.012,9.1,-6.3,1.61,-0.163,-0.363,-0.854
-0.953,0.33,0.012,-4.41,-4.9,-1.54,-0.158,-0.365,-0.853
-0.947,0.393,0.003,-7.0,-4.2,-1.96,-0.16,-0.362,-0.855
-0.935,0.405,-0.003,1.05,-4.76,-1.47,-0.157,-0.36,-0.847
-0.941,0.37,-0.006,10.92,-5.74,-1.33,-0.16,-0.358,-0.853
-0.942,0.347,0.008,14.84,-6.16,-0.07,-0.158,-0.365,-0.855
-0.942,0.337,0.024,13.51,-4.62,0.07,-0.156,-0.362,-0.856
-0.943,0.331,0.024,10.36,-3.5,0.07,-0.154,-0.367,-0.86
-0.944,0.34,0.014,6.44,-2.03,0.0,-0.159,-0.367,-0.862
-0.942,0.354,0.001,4.2,-1.68,0.07,-0.158,-0.369,-0.858
-0.945,0.358,0.0,4.34,-1.82,-0.14,-0.157,-0.369,-0.86
-0.943,0.353,0.0,4.9,-2.03,-0.21,-0.16,-0.37,-0.868
-0.941,0.353,0.008,3.43,-2.31,-0.07,-0.157,-0.368,-0.863
-0.94,0.367,0.019,1.19,-2.1,0.07,-0.159,-0.369,-0.864
-0.935,0.365,0.024,0.91,-2.45,0.07,-0.158,-0.36,-0.865
-0.935,0.361,0.036,0.07,-2.45,0.35,-0.157,-0.366,-0.861
-0.941,0.367,0.047,-1.12,-2.1,0.56,-0.159,-0.367,-0.866
-0.933,0.382,0.021,0.63,-2.17,1.4,-0.16,-0.365,-0.86
-0.937,0.375,0.017,3.85,-2.66,1.61,-0.16,-0.372,-0.865
-0.94,0.372,0.023,4.76,-2.87,1.26,-0.161,-0.369,-0.866
-0.934,0.369,0.019,4.2,-2.8,0.77,-0.159,-0.37,-0.864
-0.937,0.355,0.023,3.01,-3.15,0.21,-0.159,-0.37,-0.861
-0.942,0.357,0.024,-0.49,-2.66,-0.14,-0.158,-0.371,-0.859
-0.937,0.363,0.022,-1.4,-2.66,-0.28,-0.161,-0.369,-0.863
-0.94,0.363,0.023,-1.61,-2.38,-0.35,-0.16,-0.371,-0.86
-0.939,0.366,0.023,-2.59,-1.96,-0.63,-0.161,-0.37,-0.864
-0.937,0.37,0.022,-3.5,-1.61,-1.05,-0.157,-0.365,-0.86
-0.938,0.365,0.024,-3.78,-1.89,-1.4,-0.156,-0.368,-0.866
-0.936,0.366,0.022,-5.6,-1.61,-1.89,-0.16,-0.37,-0.862
-0.932,0.378,0.016,-4.97,-1.47,-1.89,-0.16,-0.372,-0.863
-0.934,0.374,0.019,-3.01,-2.03,-1.96,-0.159,-0.374,-0.859
-0.936,0.363,0.026,-1.54,-2.03,-1.68,-0.16,-0.37,-0.858
-0.94,0.367,0.021,-1.61,-2.03,-1.47,-0.16,-0.372,-0.864
-0.943,0.369,0.021,-0.21,-2.03,-0.77,-0.159,-0.37,-0.857
-0.946,0.36,0.025,0.7,-1.96,-0.14,-0.161,-0.37,-0.862
-0.942,0.356,0.027,-0.21,-1.89,-0.21,-0.156,-0.371,-0.859
-0.94,0.36,0.023,-1.05,-1.82,-0.42,-0.161,-0.37,-0.864
-0.935,0.363,0.019,-1.47,-2.03,-0.35,-0.157,-0.366,-0.86
-0.933,0.364,0.017,-0.98,-2.38,-0.42,-0.158,-0.368,-0.862
-0.939,0.369,0.023,-0.91,-2.52,-0.56,-0.157,-0.37,-0.856
-0.937,0.372,0.024,-1.19,-2.24,-0.28,-0.165,-0.371,-0.86
-0.936,0.369,0.022,-1.47,-2.38,-0.49,-0.164,-0.372,-0.862
-0.934,0.373,0.018,-1.82,-2.38,-0.56,-0.16,-0.372,-0.861
