ax,ay,az,gx,gy,gz,mx,my,mz
-0.983,0.086,0.11,6.93,-4.76,6.93,-0.19,-0.279,-0.895
-0.979,0.091,0.111,7.7,-5.46,7.21,-0.193,-0.282,-0.894
-0.971,0.088,0.109,8.89,-6.02,6.86,-0.192,-0.282,-0.893
-0.967,0.087,0.111,10.15,-8.33,7.35,-0.19,-0.285,-0.894
-0.982,0.101,0.135,11.34,-10.15,8.19,-0.189,-0.279,-0.892
-1.002,0.117,0.16,14.35,-11.62,9.03,-0.193,-0.279,-0.891
-1.014,0.149,0.204,19.46,-12.53,11.13,-0.192,-0.277,-0.896
-0.989,0.179,0.255,27.44,-10.57,13.02,-0.191,-0.278,-0.89
-0.937,0.181,0.258,38.22,-7.21,14.84,-0.189,-0.276,-0.884
-0.923,0.18,0.249,46.76,-8.68,16.17,-0.189,-0.279,-0.889
-0.951,0.195,0.269,55.37,-10.99,15.96,-0.189,-0.276,-0.894
-0.988,0.181,0.279,59.149,-7.42,15.12,-0.188,-0.279,-0.887
-0.973,0.161,0.267,60.06,-1.61,14.07,-0.189,-0.279,-0.891
-0.949,0.165,0.257,56.56,3.01,12.25,-0.191,-0.279,-0.894
-0.945,0.197,0.249,51.59,2.66,10.01,-0.195,-0.28,-0.903
-0.961,0.264,0.284,52.429,2.24,8.96,-0.194,-0.281,-0.899
-0.969,0.324,0.337,58.03,3.99,5.95,-0.196,-0.28,-0.902
-0.945,0.325,0.439,73.919,7.98,3.99,-0.198,-0.28,-0.907
-0.921,0.32,0.413,77.56,13.44,-0.28,-0.194,-0.283,-0.903
-0.936,0.309,0.377,73.71,15.68,-5.18,-0.196,-0.288,-0.911
-0.979,0.317,0.453,71.19,13.09,-7.35,-0.2,-0.286,-0.911
-1.009,0.352,0.583,70.419,19.88,-10.92,-0.2,-0.291,-0.929
-1.0,0.393,0.671,72.45,37.87,-18.55,-0.2,-0.299,-0.925
-1.006,0.453,0.571,79.73,54.53,-27.3,-0.196,-0.299,-0.941
-1.144,0.457,0.571,87.71,43.26,-27.93,-0.201,-0.308,-0.95
-1.323,0.457,0.656,93.45,42.21,-26.18,-0.197,-0.309,-0.959
-1.462,0.463,0.694,93.59,66.429,-26.46,-0.203,-0.313,-0.978
-1.528,0.478,0.655,89.53,90.09,-27.51,-0.197,-0.314,-0.995
-1.526,0.437,0.59,81.83,118.65,-37.94,-0.195,-0.321,-1.022
-1.516,0.316,0.451,56.0,128.52,-48.79,-0.194,-0.329,-1.033
-1.544,0.269,0.415,28.91,128.17,-62.58,-0.188,-0.333,-1.044
-1.606,0.285,0.427,-1.75,130.06,-80.71,-0.181,-0.343,-1.065
-1.639,0.354,0.478,-32.2,136.5,-105.35,-0.17,-0.354,-1.079
-1.615,0.393,0.461,-60.62,150.36,-137.27,-0.151,-0.383,-1.099
-1.563,0.388,0.373,-105.28,156.24,-182.98,-0.138,-0.395,-1.101
-1.518,0.363,0.332,-122.5,152.53,-212.45,-0.119,-0.412,-1.107
-1.44,0.465,0.385,-134.89,148.96,-237.58,-0.086,-0.453,-1.112
-1.337,0.597,0.292,-133.14,151.76,-258.02,-0.062,-0.475,-1.112
-1.295,0.713,0.197,-112.49,140.28,-270.69,-0.014,-0.512,-1.114
-1.305,0.803,0.173,-77.35,118.93,-278.67,0.017,-0.528,-1.117
-1.353,0.813,0.086,-28.77,109.76,-287.071,0.039,-0.541,-1.119
-1.383,0.72,0.095,26.11,110.18,-291.34,0.095,-0.561,-1.125
-1.345,0.566,0.088,77.0,123.34,-292.39,0.128,-0.56,-1.135
-1.24,0.34,0.065,114.8,138.04,-297.08,0.189,-0.559,-1.155
-1.065,0.245,0.11,115.43,132.02,-297.571,0.222,-0.553,-1.165
-1.003,0.203,0.157,100.73,123.69,-295.26,0.25,-0.546,-1.183
-0.901,0.19,0.151,80.919,123.41,-292.25,0.316,-0.529,-1.186
-0.736,0.161,0.076,60.129,115.64,-288.4,0.34,-0.516,-1.182
-0.577,0.138,0.018,39.97,100.94,-283.5,0.393,-0.489,-1.189
-0.424,0.159,-0.02,30.24,85.47,-278.321,0.416,-0.48,-1.186
-0.348,0.16,-0.008,34.44,60.2,-272.79,0.439,-0.466,-1.187
-0.331,0.061,0.069,51.659,32.48,-267.75,0.473,-0.432,-1.193
-0.583,-0.356,1.069,88.27,74.2,-227.15,0.488,-0.414,-1.178
-0.062,-0.213,0.644,101.64,116.48,-189.42,0.502,-0.379,-1.18
0.42,-0.178,0.538,71.82,89.04,-210.071,0.527,-0.364,-1.175
0.593,-0.065,0.424,19.74,80.57,-201.95,0.539,-0.346,-1.17
0.518,0.111,0.354,6.3,66.85,-186.62,0.56,-0.321,-1.158
0.466,0.094,0.302,36.12,45.22,-168.63,0.563,-0.305,-1.155
0.529,0.072,0.308,65.94,34.02,-148.821,0.565,-0.289,-1.155
0.567,0.046,0.393,68.32,29.05,-141.33,0.572,-0.259,-1.152
0.518,-0.038,0.574,58.87,20.86,-128.31,0.577,-0.243,-1.15
0.501,-0.125,0.659,66.08,18.62,-107.59,0.576,-0.218,-1.149
0.598,-0.239,0.657,81.69,18.69,-91.7,0.575,-0.214,-1.149
0.673,-0.281,0.636,91.0,17.29,-80.08,0.576,-0.197,-1.144
0.682,-0.255,0.605,97.51,17.22,-70.7,0.582,-0.179,-1.141
0.658,-0.303,0.632,107.59,15.26,-62.37,0.577,-0.166,-1.143
0.649,-0.457,0.643,113.4,12.32,-52.43,0.577,-0.143,-1.133
0.646,-0.613,0.668,98.63,8.68,-40.18,0.574,-0.144,-1.133
0.653,-0.662,0.71,66.36,7.7,-35.0,0.577,-0.136,-1.126
0.654,-0.563,0.737,28.49,10.57,-30.31,0.577,-0.128,-1.124
0.741,-0.451,0.731,25.55,10.99,-23.8,0.581,-0.125,-1.123
0.799,-0.471,0.715,24.29,9.94,-17.08,0.578,-0.122,-1.123
0.795,-0.494,0.723,16.38,6.3,-9.52,0.577,-0.117,-1.114
0.749,-0.486,0.763,1.26,3.78,-3.78,0.581,-0.115,-1.116
0.752,-0.432,0.804,-8.82,4.76,3.43,0.583,-0.116,-1.118
0.765,-0.37,0.869,-13.37,5.88,9.31,0.579,-0.121,-1.117
0.786,-0.353,0.846,-13.93,7.98,11.83,0.58,-0.121,-1.118
0.792,-0.354,0.84,-17.01,9.52,12.6,0.58,-0.124,-1.123
0.796,-0.322,0.844,-20.93,10.99,13.72,0.582,-0.126,-1.125
0.798,-0.257,0.847,-23.31,12.95,14.91,0.587,-0.135,-1.115
0.811,-0.222,0.843,-18.41,14.49,15.89,0.586,-0.137,-1.107
0.813,-0.213,0.825,-13.23,14.77,16.59,0.589,-0.145,-1.111
0.799,-0.215,0.825,-12.88,14.28,16.24,0.587,-0.144,-1.111
0.788,-0.207,0.809,-13.93,14.77,15.4,0.59,-0.144,-1.106
0.784,-0.207,0.795,-12.04,14.07,14.49,0.586,-0.148,-1.108
0.781,-0.197,0.774,-9.73,12.74,13.65,0.588,-0.147,-1.104
0.779,-0.175,0.758,-7.7,8.68,11.2,0.588,-0.157,-1.112
0.763,-0.137,0.735,-5.25,5.25,9.66,0.591,-0.155,-1.107
0.752,-0.126,0.731,-2.17,1.82,8.68,0.592,-0.153,-1.105
0.751,-0.12,0.718,0.21,-0.84,6.93,0.592,-0.153,-1.104
0.742,-0.126,0.717,1.82,-3.22,4.62,0.594,-0.151,-1.1
0.722,-0.118,0.709,2.66,-4.48,3.29,0.593,-0.153,-1.109
0.7,-0.117,0.705,5.04,-5.11,1.05,0.59,-0.154,-1.107
0.697,-0.143,0.667,6.44,-4.27,-0.35,0.594,-0.154,-1.106
0.693,-0.155,0.639,6.09,-4.13,-0.77,0.594,-0.157,-1.104
0.691,-0.179,0.637,5.32,-3.85,-1.12,0.591,-0.157,-1.105
0.69,-0.21,0.621,4.55,-2.87,-0.14,0.592,-0.152,-1.101
0.678,-0.216,0.623,2.73,-2.45,0.35,0.591,-0.155,-1.107
0.673,-0.212,0.627,-1.26,-0.77,0.0,0.587,-0.155,-1.106
0.69,-0.185,0.626,-5.32,3.01,-0.7,0.591,-0.151,-1.107
0.741,-0.154,0.604,-9.38,3.57,-1.05,0.602,-0.155,-1.103
0.762,-0.124,0.601,-8.96,2.59,-1.19,0.593,-0.154,-1.109
0.747,-0.116,0.605,-6.3,0.63,-2.1,0.595,-0.157,-1.107
0.719,-0.118,0.634,-3.92,-1.82,-3.01,0.595,-0.155,-1.108
0.714,-0.141,0.653,-4.62,-2.66,-5.04,0.589,-0.155,-1.106
0.699,-0.141,0.648,-8.05,-2.38,-7.56,0.588,-0.154,-1.106
0.678,-0.109,0.663,-7.0,-1.96,-7.49,0.586,-0.155,-1.103
0.681,-0.085,0.669,-5.81,-0.98,-7.35,0.589,-0.157,-1.112
0.694,-0.065,0.661,-3.99,-1.12,-6.93,0.591,-0.153,-1.11
0.689,-0.059,0.668,-2.52,-2.59,-7.35,0.592,-0.153,-1.117
0.684,-0.077,0.679,-1.05,-3.92,-7.49,0.587,-0.155,-1.113
0.681,-0.101,0.699,0.0,-4.62,-8.19,0.587,-0.151,-1.113
0.687,-0.119,0.716,1.75,-4.48,-6.86,0.593,-0.149,-1.112
0.683,-0.129,0.723,2.87,-4.13,-6.09,0.587,-0.146,-1.11
0.679,-0.142,0.722,3.5,-3.01,-6.09,0.59,-0.148,-1.111
0.689,-0.15,0.712,6.44,-2.1,-5.11,0.588,-0.148,-1.11
0.696,-0.168,0.702,9.17,-1.61,-4.69,0.587,-0.143,-1.109
0.695,-0.188,0.684,9.66,-1.05,-3.71,0.594,-0.142,-1.112
0.682,-0.204,0.656,7.49,0.14,-2.59,0.594,-0.144,-1.112
0.691,-0.2,0.637,4.55,1.05,-2.24,0.595,-0.143,-1.104
0.711,-0.209,0.63,1.05,1.54,-3.01,0.592,-0.144,-1.107
0.711,-0.202,0.635,-2.1,1.54,-3.29,0.589,-0.142,-1.111
0.709,-0.19,0.641,-4.83,2.38,-3.71,0.591,-0.141,-1.108
0.723,-0.176,0.649,-5.39,3.92,-3.64,0.593,-0.142,-1.11
0.739,-0.171,0.645,-3.85,4.34,-3.85,0.592,-0.143,-1.112
0.742,-0.177,0.659,-1.4,4.13,-3.15,0.586,-0.138,-1.11
0.728,-0.191,0.664,0.84,4.2,-1.96,0.592,-0.146,-1.108
0.71,-0.208,0.676,2.59,4.55,-0.42,0.588,-0.141,-1.108
0.706,-0.218,0.665,1.47,6.16,0.07,0.591,-0.138,-1.107
0.724,-0.218,0.65,-0.56,7.28,0.7,0.59,-0.138,-1.105
0.746,-0.206,0.637,-2.17,7.28,1.47,0.592,-0.142,-1.104
0.747,-0.197,0.637,-0.49,4.27,1.96,0.595,-0.143,-1.097
0.729,-0.188,0.64,1.12,2.66,2.24,0.594,-0.137,-1.093
0.735,-0.194,0.635,1.47,2.31,2.03,0.594,-0.136,-1.095
0.747,-0.192,0.627,1.19,1.12,1.33,0.593,-0.134,-1.091
0.748,-0.19,0.624,0.21,0.14,0.0,0.594,-0.14,-1.096
0.742,-0.187,0.627,0.07,-1.61,-0.91,0.593,-0.137,-1.097
0.731,-0.18,0.638,0.84,-2.66,-1.89,0.591,-0.141,-1.093
0.716,-0.164,0.646,0.28,-3.08,-3.01,0.589,-0.138,-1.099
0.701,-0.161,0.653,1.61,-3.64,-3.64,0.589,-0.137,-1.095
0.696,-0.167,0.656,2.66,-3.22,-3.85,0.591,-0.137,-1.098
0.696,-0.182,0.645,1.96,-3.15,-4.34,0.591,-0.137,-1.096
0.682,-0.175,0.642,0.35,-3.15,-4.27,0.59,-0.136,-1.097
0.677,-0.173,0.635,0.07,-3.01,-4.48,0.591,-0.134,-1.106
0.68,-0.178,0.635,0.7,-3.01,-4.48,0.586,-0.139,-1.104
0.68,-0.187,0.64,0.7,-3.15,-3.99,0.592,-0.135,-1.103
0.67,-0.191,0.653,1.12,-3.22,-2.24,0.59,-0.14,-1.098
0.67,-0.195,0.661,-0.21,-2.8,-1.54,0.592,-0.142,-1.106
0.674,-0.186,0.657,-1.89,-2.31,-1.05,0.586,-0.138,-1.103
0.673,-0.17,0.652,-3.5,-2.03,-0.56,0.589,-0.138,-1.102
0.671,-0.161,0.631,-4.2,-1.75,-1.12,0.588,-0.138,-1.107
0.683,-0.165,0.622,-4.06,-1.47,-1.33,0.591,-0.134,-1.101
0.698,-0.17,0.611,-3.5,-1.4,-1.12,0.59,-0.138,-1.1
0.7,-0.177,0.616,-3.15,-2.52,-0.21,0.587,-0.133,-1.105
0.696,-0.175,0.631,-2.66,-3.92,1.89,0.591,-0.135,-1.108
0.683,-0.17,0.655,-1.33,-4.9,2.8,0.588,-0.137,-1.107
0.683,-0.167,0.674,-0.07,-5.04,3.36,0.586,-0.139,-1.103
0.692,-0.186,0.687,1.54,-5.18,3.57,0.588,-0.136,-1.105
0.7,-0.203,0.699,0.49,-5.81,3.99,0.587,-0.134,-1.109
0.707,-0.209,0.71,-1.33,-5.81,3.92,0.584,-0.138,-1.108
0.714,-0.207,0.729,-2.73,-5.6,3.36,0.586,-0.138,-1.112
0.727,-0.186,0.739,-3.36,-4.83,2.8,0.589,-0.138,-1.116
0.732,-0.157,0.736,-3.71,-4.13,1.68,0.589,-0.137,-1.112
0.727,-0.14,0.728,-2.87,-3.57,0.21,0.59,-0.135,-1.112
0.726,-0.138,0.715,-0.14,-2.94,-0.7,0.586,-0.136,-1.112
0.72,-0.148,0.692,1.47,-2.59,-1.47,0.589,-0.139,-1.118
0.718,-0.164,0.676,1.33,-2.24,-2.38,0.589,-0.139,-1.115
0.718,-0.172,0.667,1.19,-1.26,-2.87,0.585,-0.14,-1.115
0.709,-0.172,0.658,-0.07,-0.77,-3.85,0.582,-0.134,-1.12
0.659,-0.173,0.661,-0.56,-0.28,-3.99,0.587,-0.134,-1.114
0.668,-0.164,0.652,-0.77,0.7,-4.06,0.589,-0.137,-1.119
0.661,-0.157,0.644,-0.84,1.54,-4.2,0.59,-0.141,-1.118
0.658,-0.156,0.638,0.28,1.82,-4.2,0.588,-0.137,-1.115
0.657,-0.164,0.633,0.98,2.03,-4.13,0.584,-0.139,-1.114
0.65,-0.173,0.633,0.84,2.1,-3.78,0.588,-0.136,-1.111
0.638,-0.175,0.632,0.07,1.75,-2.45,0.582,-0.139,-1.11
0.653,-0.176,0.642,0.21,2.03,-1.19,0.591,-0.135,-1.113
0.675,-0.178,0.645,0.28,1.96,0.0,0.587,-0.136,-1.102
0.684,-0.181,0.652,0.56,0.77,1.61,0.592,-0.133,-1.105
0.687,-0.183,0.668,0.49,-0.63,2.87,0.585,-0.137,-1.109
0.701,-0.183,0.694,-0.21,-0.07,3.78,0.593,-0.141,-1.106
0.728,-0.183,0.716,1.26,0.0,4.9,0.593,-0.14,-1.11
0.791,-0.212,0.764,2.73,0.84,6.02,0.588,-0.138,-1.108
0.86,-0.241,0.787,3.57,2.24,5.88,0.589,-0.139,-1.11
0.924,-0.263,0.799,2.52,2.8,5.81,0.59,-0.144,-1.104
0.956,-0.277,0.818,1.47,1.12,7.21,0.592,-0.14,-1.109
0.953,-0.289,0.857,0.91,-1.89,10.71,0.592,-0.141,-1.106
0.94,-0.307,0.904,0.91,-5.04,19.81,0.589,-0.149,-1.11
0.939,-0.348,0.915,1.19,-7.98,28.28,0.589,-0.147,-1.117
0.928,-0.409,0.925,0.56,-12.18,38.99,0.591,-0.154,-1.112
0.89,-0.449,0.947,-1.61,-16.38,51.73,0.592,-0.156,-1.113
0.84,-0.46,0.988,-4.2,-19.18,64.82,0.588,-0.165,-1.116
0.786,-0.446,1.001,-6.3,-19.88,78.82,0.588,-0.178,-1.118
0.732,-0.41,0.992,-12.6,-19.32,92.26,0.593,-0.184,-1.122
0.685,-0.392,0.949,-34.09,-17.78,110.88,0.595,-0.205,-1.121
0.628,-0.391,0.844,-48.72,-17.01,124.18,0.589,-0.217,-1.124
0.594,-0.39,0.752,-60.55,-16.59,136.78,0.587,-0.229,-1.131
0.539,-0.304,0.654,-64.89,-18.62,150.71,0.587,-0.259,-1.128
0.47,-0.233,0.584,-54.6,-21.84,161.28,0.579,-0.27,-1.129
0.389,-0.265,0.505,-35.07,-28.0,174.79,0.57,-0.307,-1.133
0.279,-0.253,0.438,-28.77,-37.59,194.25,0.568,-0.324,-1.134
0.157,-0.189,0.432,-41.02,-48.93,212.17,0.564,-0.343,-1.135
0.061,-0.069,0.488,-51.03,-50.61,224.07,0.539,-0.378,-1.137
0.031,0.005,0.508,-58.52,-51.59,238.49,0.529,-0.397,-1.145
-0.027,0.125,0.507,-64.19,-55.3,252.98,0.504,-0.436,-1.153
-0.113,0.246,0.478,-63.28,-59.71,263.97,0.486,-0.46,-1.15
-0.212,0.315,0.433,-60.06,-67.2,273.56,0.469,-0.474,-1.142
-0.315,0.379,0.369,-59.78,-74.9,280.77,0.427,-0.507,-1.146
-0.427,0.49,0.31,-64.75,-103.18,282.8,0.404,-0.52,-1.141
-0.596,0.683,0.328,-70.84,-100.87,280.91,0.354,-0.548,-1.144
-0.691,0.842,0.345,-61.39,-108.64,282.24,0.324,-0.56,-1.138
-0.766,0.941,0.348,-39.76,-115.36,282.87,0.293,-0.566,-1.139
-0.839,0.963,0.399,-7.14,-122.71,281.68,0.239,-0.574,-1.135
-0.904,0.92,0.422,30.52,-129.92,278.95,0.206,-0.572,-1.14
-0.941,0.826,0.416,63.21,-132.65,273.56,0.157,-0.564,-1.146
-0.945,0.752,0.379,82.04,-134.19,259.0,0.125,-0.556,-1.155
-0.959,0.691,0.445,91.56,-139.72,246.68,0.095,-0.548,-1.157
-0.965,0.635,0.53,94.919,-138.46,235.97,0.048,-0.523,-1.167
-0.952,0.611,0.534,93.8,-133.77,223.72,0.026,-0.505,-1.17
-0.957,0.56,0.517,86.73,-131.25,208.18,-0.015,-0.478,-1.165
-0.979,0.531,0.516,73.639,-129.92,191.94,-0.035,-0.463,-1.16
-0.971,0.546,0.546,60.34,-120.82,175.49,-0.058,-0.451,-1.155
-0.95,0.563,0.592,50.19,-107.87,157.57,-0.086,-0.433,-1.148
-0.942,0.548,0.555,41.58,-100.52,140.91,-0.095,-0.419,-1.148
-0.946,0.5,0.534,25.34,-86.1,115.43,-0.107,-0.412,-1.136
-0.931,0.403,0.543,11.97,-69.86,96.669,-0.126,-0.396,-1.13
-0.891,0.314,0.482,-8.4,-58.59,78.679,-0.133,-0.388,-1.121
-0.893,0.219,0.441,-38.57,-55.44,62.649,-0.139,-0.383,-1.112
-0.917,0.169,0.457,-76.09,-51.1,48.51,-0.145,-0.38,-1.109
-0.905,0.207,0.42,-116.06,-42.07,35.56,-0.15,-0.381,-1.104
-0.856,0.295,0.426,-143.78,-32.2,26.18,-0.154,-0.38,-1.078
-0.804,0.394,0.429,-154.14,-27.16,22.75,-0.156,-0.378,-1.069
-0.789,0.474,0.448,-147.98,-31.01,23.73,-0.158,-0.383,-1.047
-0.822,0.52,0.469,-133.49,-39.34,30.59,-0.164,-0.378,-1.04
-0.867,0.499,0.442,-104.09,-34.86,33.67,-0.161,-0.378,-1.029
-0.858,0.437,0.367,-89.11,-28.21,36.82,-0.172,-0.371,-1.017
-0.836,0.391,0.361,-79.1,-24.71,42.0,-0.174,-0.368,-1.012
-0.825,0.405,0.35,-73.64,-25.48,48.58,-0.17,-0.363,-1.003
-0.844,0.451,0.371,-66.29,-32.62,53.2,-0.181,-0.348,-0.983
-0.888,0.492,0.379,-55.72,-38.43,56.28,-0.182,-0.345,-0.984
-0.932,0.506,0.372,-41.65,-41.09,58.03,-0.182,-0.334,-0.976
-0.959,0.488,0.377,-18.2,-39.69,58.659,-0.187,-0.332,-0.973
-0.959,0.441,0.375,-5.95,-37.94,58.03,-0.186,-0.317,-0.958
-0.937,0.428,0.415,3.78,-37.87,56.0,-0.191,-0.314,-0.954
-0.915,0.425,0.443,13.3,-38.5,52.71,-0.192,-0.307,-0.952
-0.911,0.402,0.423,20.09,-40.95,48.23,-0.194,-0.298,-0.956
-0.94,0.356,0.405,24.85,-45.85,43.82,-0.195,-0.297,-0.944
-0.984,0.317,0.408,24.29,-46.41,37.03,-0.196,-0.289,-0.94
-1.029,0.267,0.402,21.14,-40.46,31.99,-0.195,-0.287,-0.94
-1.036,0.233,0.383,15.61,-33.81,27.02,-0.197,-0.282,-0.935
-1.046,0.199,0.356,6.51,-29.54,21.7,-0.191,-0.283,-0.928
-1.057,0.183,0.358,-4.83,-27.72,15.4,-0.193,-0.279,-0.926
-1.058,0.184,0.369,-16.38,-23.1,8.54,-0.195,-0.277,-0.925
-1.036,0.195,0.374,-25.48,-16.03,2.59,-0.196,-0.279,-0.921
-1.011,0.198,0.355,-30.59,-11.97,-3.78,-0.196,-0.277,-0.915
-1.004,0.185,0.342,-31.36,-13.09,-6.3,-0.195,-0.277,-0.913
-1.005,0.156,0.34,-31.57,-10.99,-8.96,-0.201,-0.274,-0.912
-0.99,0.149,0.333,-30.87,-5.95,-9.94,-0.195,-0.274,-0.903
-0.972,0.147,0.32,-27.79,-3.22,-9.52,-0.193,-0.276,-0.902
-0.975,0.144,0.308,-24.22,-4.41,-8.4,-0.194,-0.28,-0.905
-0.997,0.137,0.304,-20.51,-5.67,-7.21,-0.195,-0.277,-0.905
-1.011,0.118,0.294,-17.15,-3.29,-6.65,-0.199,-0.279,-0.906
-1.002,0.095,0.275,-15.96,1.89,-5.25,-0.194,-0.283,-0.905
-0.948,0.087,0.237,-18.2,6.16,-4.55,-0.196,-0.282,-0.902
-0.96,0.091,0.222,-19.81,4.27,-3.99,-0.196,-0.284,-0.9
-0.979,0.102,0.212,-20.51,0.49,-2.8,-0.193,-0.28,-0.898
-1.007,0.107,0.216,-18.48,-1.75,-2.03,-0.189,-0.28,-0.901
-1.021,0.104,0.218,-15.19,-0.14,-0.77,-0.193,-0.282,-0.897
-1.014,0.104,0.208,-12.25,3.29,0.07,-0.19,-0.28,-0.894
-0.997,0.104,0.198,-8.75,4.48,0.84,-0.195,-0.281,-0.903
-0.98,0.106,0.158,-6.93,3.08,1.47,-0.19,-0.277,-0.899
-0.982,0.106,0.174,-4.69,0.7,1.61,-0.194,-0.274,-0.9
-0.992,0.101,0.175,-2.87,-1.26,1.68,-0.193,-0.277,-0.903
-0.997,0.097,0.178,-1.89,-1.33,1.54,-0.192,-0.275,-0.904
-0.993,0.097,0.173,-0.56,0.0,0.91,-0.193,-0.278,-0.902
-0.988,0.093,0.164,0.63,0.35,0.56,-0.195,-0.272,-0.904
-0.987,0.09,0.16,1.54,-1.47,0.91,-0.196,-0.277,-0.906
-0.989,0.089,0.162,2.24,-2.03,0.98,-0.193,-0.277,-0.905
-0.986,0.089,0.161,2.73,-1.26,2.24,-0.196,-0.276,-0.906
-0.98,0.088,0.154,3.22,-0.84,2.73,-0.194,-0.279,-0.899
-0.977,0.095,0.153,3.43,-1.75,3.43,-0.198,-0.281,-0.899
-0.985,0.102,0.156,3.92,-2.94,3.78,-0.195,-0.278,-0.904
-1.002,0.107,0.156,3.57,-4.76,3.08,-0.2,-0.274,-0.903
-1.021,0.1,0.16,2.24,-5.18,0.49,-0.198,-0.277,-0.901
-1.035,0.081,0.16,-0.91,-4.06,-2.1,-0.19,-0.274,-0.899
-1.028,0.069,0.151,-6.86,-2.17,-5.25,-0.196,-0.276,-0.9
-1.003,0.057,0.15,-13.79,0.0,-8.26,-0.193,-0.275,-0.898
-0.978,0.061,0.152,-20.72,1.4,-10.43,-0.192,-0.276,-0.903
-0.964,0.077,0.157,-25.06,-0.56,-10.71,-0.195,-0.278,-0.898
-0.967,0.091,0.169,-24.15,-3.85,-7.77,-0.191,-0.275,-0.897
-0.978,0.118,0.171,-19.67,-4.34,-5.18,-0.192,-0.28,-0.891
-0.977,0.126,0.171,-12.6,-3.5,-2.66,-0.19,-0.278,-0.897
-0.97,0.129,0.168,-4.83,-3.01,1.19,-0.19,-0.282,-0.896
-0.966,0.126,0.167,1.05,-4.06,4.13,-0.191,-0.279,-0.896
-0.973,0.116,0.172,5.32,-5.95,5.95,-0.193,-0.277,-0.893
-0.989,0.109,0.178,7.28,-7.56,7.63,-0.191,-0.28,-0.889
-1.002,0.109,0.18,5.53,-7.07,7.7,-0.187,-0.281,-0.89
-1.006,0.11,0.177,3.22,-5.32,7.35,-0.186,-0.27,-0.894
-1.0,0.117,0.178,0.56,-4.34,6.93,-0.19,-0.271,-0.886
-0.995,0.126,0.177,-1.47,-3.92,5.95,-0.19,-0.27,-0.891
-0.988,0.133,0.175,-2.31,-3.29,5.04,-0.193,-0.27,-0.891
-0.984,0.137,0.174,-1.82,-3.08,4.41,-0.19,-0.27,-0.887
-0.985,0.138,0.173,0.84,-3.92,3.36,-0.198,-0.268,-0.889
-0.992,0.132,0.176,1.96,-3.71,3.01,-0.191,-0.269,-0.89
-0.991,0.128,0.174,2.59,-3.29,2.52,-0.193,-0.27,-0.891
-0.99,0.13,0.166,3.01,-2.87,2.66,-0.194,-0.271,-0.884
-0.989,0.127,0.167,3.85,-3.15,2.17,-0.191,-0.266,-0.889
-0.99,0.125,0.17,4.41,-2.94,1.68,-0.187,-0.267,-0.89
-0.992,0.119,0.168,4.55,-2.94,0.98,-0.194,-0.27,-0.889
-0.993,0.117,0.168,4.62,-2.52,0.56,-0.195,-0.273,-0.891
-0.992,0.117,0.164,3.57,-2.03,-0.56,-0.19,-0.271,-0.89
-0.999,0.114,0.155,2.94,-2.17,-1.33,-0.194,-0.269,-0.888
-1.012,0.111,0.161,2.73,-3.15,-1.47,-0.194,-0.269,-0.889
-1.016,0.111,0.173,2.17,-2.45,-2.17,-0.193,-0.27,-0.889
-1.003,0.11,0.165,2.03,0.07,-2.73,-0.196,-0.27,-0.887
-0.986,0.113,0.155,3.36,-0.84,-2.45,-0.196,-0.268,-0.889
-0.991,0.107,0.161,4.97,-2.45,-2.45,-0.198,-0.272,-0.891
-0.998,0.102,0.171,6.37,-2.73,-1.68,-0.194,-0.274,-0.89
-0.996,0.101,0.169,6.79,-1.75,-1.19,-0.189,-0.275,-0.887
-0.988,0.096,0.166,7.42,-0.77,-0.56,-0.194,-0.281,-0.893
-0.985,0.094,0.162,7.28,-1.19,0.0,-0.191,-0.277,-0.893
-0.993,0.091,0.164,5.67,-1.96,0.07,-0.195,-0.276,-0.889
-1.005,0.095,0.167,3.99,-1.89,0.0,-0.19,-0.276,-0.894
-1.005,0.099,0.167,3.22,-0.42,-0.21,-0.194,-0.277,-0.886
-1.0,0.101,0.159,3.08,0.56,-0.21,-0.192,-0.278,-0.893
-1.0,0.1,0.155,2.73,0.42,-0.56,-0.193,-0.279,-0.891
-1.0,0.1,0.16,2.45,-0.14,-0.84,-0.189,-0.279,-0.888
-0.996,0.097,0.158,2.59,1.26,-1.05,-0.189,-0.275,-0.893
-0.988,0.096,0.155,2.52,1.47,-0.91,-0.187,-0.277,-0.887
-0.987,0.094,0.152,2.38,-0.07,-0.77,-0.186,-0.276,-0.893
-0.998,0.085,0.161,2.03,-1.26,-0.49,-0.189,-0.28,-0.892
-1.005,0.07,0.161,-0.21,-0.42,-0.98,-0.193,-0.276,-0.893
-1.004,0.063,0.153,-4.48,1.33,-1.61,-0.192,-0.279,-0.893
-0.997,0.071,0.151,-9.38,2.52,-2.38,-0.194,-0.275,-0.892
-0.988,0.085,0.154,-12.74,3.01,-2.73,-0.188,-0.278,-0.883
-0.982,0.101,0.16,-13.79,2.87,-2.45,-0.191,-0.279,-0.883
-0.984,0.109,0.158,-11.13,1.54,-2.59,-0.185,-0.275,-0.894
-0.985,0.108,0.152,-8.4,1.05,-1.4,-0.188,-0.274,-0.889
-0.982,0.117,0.151,-6.3,1.33,-0.42,-0.187,-0.276,-0.891
-0.981,0.114,0.151,-3.43,1.26,0.0,-0.19,-0.276,-0.892
-0.982,0.114,0.152,-0.91,0.49,1.61,-0.189,-0.28,-0.892
-0.986,0.115,0.154,0.77,-0.56,2.24,-0.189,-0.278,-0.893
-0.985,0.115,0.154,2.17,-0.42,2.59,-0.192,-0.278,-0.899
-0.982,0.114,0.149,2.59,-0.28,3.08,-0.192,-0.279,-0.894
