ax,ay,az,gx,gy,gz,mx,my,mz
-0.946,0.201,0.198,0.98,-2.45,-10.22,-0.157,-0.369,-0.949
-0.948,0.189,0.204,1.47,-2.73,-10.01,-0.165,-0.37,-0.951
-0.953,0.187,0.209,1.75,-3.29,-9.59,-0.159,-0.373,-0.953
-0.953,0.186,0.219,2.03,-3.15,-8.89,-0.16,-0.379,-0.948
-0.949,0.188,0.221,2.45,-3.71,-8.26,-0.162,-0.373,-0.946
-0.949,0.189,0.224,3.29,-4.34,-7.21,-0.162,-0.372,-0.953
-0.949,0.188,0.228,4.69,-4.69,-6.23,-0.163,-0.372,-0.948
-0.934,0.185,0.233,5.46,-4.55,-5.39,-0.161,-0.368,-0.947
-0.921,0.184,0.236,5.95,-4.13,-5.11,-0.16,-0.378,-0.951
-0.914,0.184,0.236,6.58,-4.27,-4.69,-0.153,-0.377,-0.947
-0.917,0.18,0.237,7.21,-4.55,-3.5,-0.156,-0.377,-0.947
-0.936,0.177,0.235,7.7,-4.97,-1.26,-0.157,-0.374,-0.949
-0.974,0.182,0.243,7.56,-4.48,4.27,-0.16,-0.372,-0.946
-0.978,0.189,0.24,7.42,-2.66,8.4,-0.153,-0.37,-0.944
-0.97,0.194,0.23,7.21,-1.61,12.25,-0.156,-0.37,-0.946
-0.966,0.2,0.223,6.09,-1.61,15.54,-0.154,-0.37,-0.944
-0.967,0.207,0.221,4.41,-1.47,18.55,-0.161,-0.367,-0.95
-0.961,0.229,0.211,1.4,-0.21,21.35,-0.163,-0.367,-0.948
-0.954,0.248,0.205,0.56,-0.21,21.98,-0.167,-0.361,-0.944
-0.969,0.262,0.205,0.77,-0.7,21.84,-0.168,-0.358,-0.95
-0.98,0.26,0.206,0.84,-0.35,21.14,-0.168,-0.354,-0.947
-0.98,0.26,0.205,0.35,0.42,20.3,-0.164,-0.355,-0.948
-0.973,0.266,0.206,-0.63,0.63,19.32,-0.166,-0.352,-0.942
-0.956,0.272,0.202,-2.1,1.75,15.82,-0.169,-0.351,-0.945
-0.91,0.272,0.192,-3.01,2.31,12.67,-0.17,-0.351,-0.949
-0.887,0.268,0.187,-3.92,1.61,8.68,-0.174,-0.347,-0.953
-0.88,0.267,0.184,-5.11,0.14,5.04,-0.172,-0.343,-0.947
-0.887,0.27,0.187,-5.32,-1.05,1.96,-0.175,-0.348,-0.944
-0.897,0.275,0.192,-3.92,-1.05,-0.21,-0.174,-0.345,-0.952
-0.905,0.272,0.199,0.49,-0.77,-1.68,-0.175,-0.345,-0.949
-0.896,0.253,0.194,3.22,0.21,-1.75,-0.174,-0.343,-0.954
-0.887,0.239,0.192,4.27,0.91,-1.82,-0.173,-0.343,-0.952
-0.884,0.229,0.192,2.94,0.77,-1.82,-0.176,-0.344,-0.951
-0.883,0.229,0.198,0.63,1.33,-1.96,-0.173,-0.341,-0.949
-0.871,0.232,0.198,-3.36,3.01,-3.57,-0.18,-0.344,-0.949
-0.863,0.232,0.187,-5.88,3.57,-4.83,-0.175,-0.341,-0.95
-0.871,0.235,0.18,-7.42,3.08,-6.16,-0.167,-0.341,-0.944
-0.895,0.239,0.184,-8.26,1.96,-7.7,-0.17,-0.338,-0.947
-0.919,0.246,0.187,-7.77,1.26,-8.82,-0.17,-0.34,-0.949
-0.945,0.249,0.188,-5.81,0.21,-9.1,-0.171,-0.343,-0.95
-0.985,0.238,0.195,-1.54,-1.47,-8.75,-0.174,-0.344,-0.95
-1.004,0.225,0.205,0.28,-1.82,-8.12,-0.171,-0.344,-0.947
-1.008,0.214,0.213,-0.21,-1.61,-7.42,-0.17,-0.347,-0.949
-1.0,0.211,0.212,-1.75,-1.26,-7.21,-0.167,-0.35,-0.951
-0.983,0.215,0.209,-3.5,-1.47,-7.56,-0.167,-0.349,-0.952
-0.972,0.22,0.206,-3.71,-2.8,-8.4,-0.167,-0.347,-0.954
-0.981,0.227,0.215,-2.31,-4.13,-8.54,-0.167,-0.352,-0.954
-0.989,0.223,0.221,0.14,-5.11,-8.47,-0.166,-0.354,-0.95
-0.994,0.218,0.227,2.8,-5.74,-7.42,-0.165,-0.353,-0.948
-0.999,0.213,0.239,5.39,-6.65,-5.74,-0.165,-0.354,-0.946
-0.989,0.206,0.245,7.91,-6.23,-4.13,-0.164,-0.352,-0.95
-0.964,0.198,0.24,8.54,-6.37,-2.66,-0.163,-0.354,-0.944
-0.971,0.198,0.246,9.1,-7.7,-1.19,-0.161,-0.357,-0.949
-0.994,0.199,0.253,9.31,-8.19,0.35,-0.163,-0.355,-0.948
-1.007,0.198,0.262,9.66,-7.21,2.1,-0.168,-0.352,-0.95
-1.011,0.194,0.263,9.66,-6.23,3.78,-0.163,-0.355,-0.947
-1.02,0.194,0.261,8.61,-6.3,6.65,-0.17,-0.356,-0.94
-1.047,0.198,0.261,7.14,-6.09,8.75,-0.164,-0.353,-0.947
-1.061,0.205,0.267,5.88,-5.11,10.99,-0.168,-0.35,-0.94
-1.05,0.213,0.27,4.2,-3.36,12.46,-0.165,-0.349,-0.939
-1.014,0.216,0.258,2.66,-0.91,13.09,-0.163,-0.35,-0.94
-0.988,0.22,0.244,1.19,-0.84,13.02,-0.168,-0.346,-0.944
-0.992,0.223,0.233,-0.35,-2.24,11.97,-0.167,-0.345,-0.939
-1.036,0.235,0.238,-1.89,-2.1,11.27,-0.17,-0.346,-0.941
-1.05,0.244,0.242,-1.89,-0.91,10.64,-0.169,-0.339,-0.938
-1.042,0.247,0.243,-0.84,0.42,10.15,-0.17,-0.343,-0.938
-1.018,0.241,0.232,-0.21,1.4,8.75,-0.169,-0.339,-0.941
-0.997,0.231,0.216,-0.42,1.33,6.93,-0.169,-0.337,-0.944
-0.996,0.23,0.206,-1.96,-0.7,3.85,-0.172,-0.338,-0.943
-1.027,0.245,0.214,-1.82,-1.54,2.31,-0.168,-0.335,-0.941
-1.028,0.246,0.218,0.28,-0.42,1.12,-0.169,-0.334,-0.937
-1.008,0.235,0.215,2.59,0.49,0.14,-0.171,-0.334,-0.942
-0.987,0.22,0.21,4.27,0.07,-0.56,-0.169,-0.335,-0.941
-0.985,0.207,0.205,3.64,-1.75,-0.77,-0.172,-0.332,-0.943
-0.99,0.206,0.208,2.1,-1.54,-1.19,-0.171,-0.338,-0.937
-0.966,0.209,0.203,0.91,0.07,-1.89,-0.172,-0.338,-0.938
-0.942,0.207,0.2,0.28,0.42,-2.52,-0.169,-0.337,-0.941
-0.934,0.201,0.195,-0.21,-0.56,-3.22,-0.17,-0.339,-0.946
-0.946,0.199,0.193,-1.05,-1.54,-3.29,-0.171,-0.339,-0.947
-0.97,0.2,0.198,-2.1,-1.75,-2.87,-0.171,-0.344,-0.943
-0.979,0.203,0.202,-3.15,-0.77,-2.52,-0.172,-0.343,-0.948
-0.955,0.201,0.195,-3.71,0.84,-2.8,-0.17,-0.339,-0.947
-0.936,0.195,0.182,-5.11,0.56,-3.64,-0.172,-0.343,-0.944
-0.941,0.194,0.181,-6.58,-0.7,-4.41,-0.169,-0.341,-0.952
-0.962,0.203,0.188,-7.91,-1.96,-4.76,-0.17,-0.341,-0.947
-0.973,0.215,0.193,-7.35,-1.26,-4.97,-0.17,-0.34,-0.948
-0.965,0.211,0.186,-5.88,-1.12,-5.32,-0.167,-0.346,-0.945
-0.959,0.198,0.182,-4.48,-1.61,-5.95,-0.168,-0.349,-0.948
-0.961,0.188,0.183,-4.34,-2.59,-6.58,-0.17,-0.351,-0.945
-0.967,0.188,0.185,-5.67,-3.43,-7.07,-0.168,-0.352,-0.946
-0.975,0.196,0.193,-6.02,-4.48,-7.14,-0.169,-0.353,-0.946
-0.975,0.201,0.2,-4.76,-4.48,-6.93,-0.168,-0.354,-0.945
-0.958,0.191,0.197,-1.68,-4.83,-6.58,-0.163,-0.349,-0.941
-0.956,0.18,0.201,-0.91,-5.46,-5.6,-0.167,-0.353,-0.939
-0.967,0.177,0.21,-0.84,-6.51,-4.83,-0.166,-0.352,-0.947
-0.972,0.181,0.218,-0.98,-6.44,-3.71,-0.163,-0.353,-0.942
-0.96,0.185,0.219,-0.7,-5.67,-2.17,-0.164,-0.353,-0.946
-0.941,0.182,0.217,0.07,-5.25,-0.07,-0.168,-0.35,-0.946
-0.93,0.176,0.219,-0.07,-5.25,1.54,-0.162,-0.351,-0.94
-0.94,0.181,0.226,-0.98,-5.81,3.15,-0.171,-0.354,-0.939
-0.955,0.191,0.23,-1.89,-5.53,5.11,-0.171,-0.348,-0.937
-0.968,0.2,0.236,-1.54,-5.18,6.72,-0.167,-0.348,-0.941
-0.938,0.202,0.237,-1.26,-3.08,8.19,-0.165,-0.345,-0.935
-0.956,0.198,0.231,-2.17,-2.17,8.61,-0.168,-0.347,-0.933
-0.959,0.199,0.229,-3.99,-2.24,8.54,-0.166,-0.338,-0.942
-0.982,0.209,0.237,-5.88,-2.66,8.4,-0.166,-0.341,-0.938
-0.995,0.222,0.242,-6.72,-1.75,8.4,-0.17,-0.339,-0.941
-0.988,0.227,0.234,-6.02,0.49,7.56,-0.168,-0.341,-0.937
-0.969,0.226,0.227,-5.25,0.84,6.79,-0.172,-0.337,-0.941
-0.978,0.229,0.233,-4.34,0.0,6.02,-0.17,-0.338,-0.944
-0.994,0.233,0.244,-3.64,0.14,6.09,-0.171,-0.34,-0.938
-0.995,0.232,0.244,-3.22,1.75,5.32,-0.176,-0.336,-0.94
-0.977,0.229,0.237,-3.29,3.43,4.2,-0.173,-0.336,-0.939
-0.954,0.223,0.225,-4.27,4.34,2.1,-0.169,-0.335,-0.944
-0.964,0.224,0.222,-5.67,3.5,0.7,-0.173,-0.335,-0.944
-0.988,0.23,0.224,-6.16,3.01,0.21,-0.171,-0.337,-0.938
-1.007,0.236,0.226,-5.95,4.06,0.07,-0.172,-0.333,-0.934
-1.003,0.237,0.224,-4.9,5.39,-0.07,-0.172,-0.335,-0.935
-0.98,0.23,0.223,-4.2,6.72,-0.21,-0.174,-0.339,-0.943
-0.945,0.219,0.207,-5.46,6.58,-1.33,-0.172,-0.332,-0.945
-0.951,0.225,0.206,-7.14,4.76,-2.52,-0.177,-0.335,-0.939
-0.962,0.235,0.209,-7.56,3.78,-3.85,-0.17,-0.339,-0.938
-0.961,0.24,0.209,-6.3,4.34,-4.62,-0.169,-0.34,-0.947
-0.957,0.237,0.212,-4.06,4.06,-4.76,-0.175,-0.34,-0.952
-0.958,0.225,0.215,-1.96,3.08,-4.83,-0.175,-0.342,-0.946
-0.957,0.214,0.212,-0.98,2.94,-4.9,-0.172,-0.339,-0.935
-0.959,0.206,0.207,-1.75,2.24,-4.62,-0.174,-0.339,-0.939
-0.974,0.209,0.21,-2.38,0.77,-4.2,-0.169,-0.336,-0.937
-0.992,0.216,0.215,-2.66,0.28,-3.36,-0.17,-0.342,-0.938
-0.999,0.228,0.23,-2.03,0.42,-2.59,-0.174,-0.345,-0.94
-0.987,0.243,0.23,-0.77,-0.28,-2.31,-0.174,-0.344,-0.943
-0.97,0.238,0.216,2.8,-1.47,-1.96,-0.171,-0.339,-0.939
-0.977,0.228,0.225,4.97,-2.94,-1.47,-0.172,-0.338,-0.945
-0.994,0.235,0.228,5.04,-2.94,-3.01,-0.172,-0.342,-0.951
-0.997,0.231,0.229,5.74,-2.31,-2.66,-0.175,-0.339,-0.946
-0.993,0.228,0.244,4.9,-1.05,-2.38,-0.168,-0.343,-0.942
-0.977,0.219,0.238,1.61,0.07,-4.2,-0.174,-0.341,-0.944
-0.975,0.231,0.228,-0.56,-0.77,-4.76,-0.173,-0.343,-0.945
-1.001,0.235,0.238,-0.63,-1.82,-4.83,-0.174,-0.34,-0.944
-1.011,0.232,0.254,-0.42,-0.21,-4.83,-0.168,-0.341,-0.954
-0.982,0.226,0.25,-0.63,3.43,-5.32,-0.167,-0.341,-0.945
-0.949,0.221,0.235,-1.68,2.66,-6.65,-0.165,-0.344,-0.947
-0.949,0.203,0.231,-3.36,1.33,-6.65,-0.167,-0.342,-0.95
-0.966,0.213,0.235,-4.76,0.91,-6.02,-0.168,-0.344,-0.947
-0.977,0.227,0.244,-5.11,1.54,-5.46,-0.169,-0.353,-0.945
-0.967,0.236,0.244,-3.71,2.59,-5.04,-0.164,-0.348,-0.947
-0.944,0.23,0.232,-2.1,2.8,-4.76,-0.167,-0.354,-0.954
-0.931,0.222,0.188,-2.1,1.12,-4.83,-0.171,-0.348,-0.953
-0.949,0.22,0.208,-3.43,-0.84,-4.83,-0.168,-0.354,-0.949
-0.98,0.234,0.209,-3.92,-2.45,-4.27,-0.169,-0.352,-0.949
-1.005,0.243,0.216,-3.15,-2.94,-3.22,-0.165,-0.352,-0.95
-1.017,0.25,0.219,-0.77,-3.15,-1.33,-0.165,-0.35,-0.947
-1.012,0.251,0.223,3.29,-3.85,1.54,-0.164,-0.355,-0.951
-1.001,0.244,0.217,5.11,-5.74,3.01,-0.165,-0.35,-0.947
-1.013,0.245,0.22,5.95,-8.05,4.34,-0.163,-0.351,-0.947
-1.032,0.25,0.231,6.3,-9.66,5.25,-0.167,-0.355,-0.947
-1.042,0.257,0.24,6.51,-10.43,6.02,-0.166,-0.351,-0.946
-1.04,0.266,0.246,7.56,-10.5,7.0,-0.167,-0.356,-0.941
-1.034,0.266,0.249,9.1,-10.92,7.49,-0.171,-0.354,-0.94
-1.03,0.265,0.251,10.15,-11.34,8.19,-0.169,-0.351,-0.941
-1.033,0.263,0.256,10.64,-12.18,8.05,-0.169,-0.351,-0.95
-1.029,0.264,0.261,10.22,-12.18,7.77,-0.175,-0.35,-0.946
-1.011,0.266,0.262,9.52,-11.48,6.93,-0.17,-0.35,-0.947
-0.987,0.268,0.26,9.03,-10.78,5.74,-0.175,-0.347,-0.943
-0.968,0.271,0.257,9.17,-10.85,4.48,-0.177,-0.341,-0.947
-0.959,0.276,0.258,11.2,-11.9,3.08,-0.171,-0.346,-0.949
-0.964,0.274,0.266,13.72,-11.83,2.24,-0.168,-0.343,-0.952
-0.954,0.265,0.273,15.82,-10.43,1.19,-0.173,-0.349,-0.941
-0.928,0.253,0.273,16.59,-8.19,-0.07,-0.17,-0.349,-0.945
-0.894,0.241,0.273,15.96,-6.44,-1.68,-0.168,-0.346,-0.942
-0.847,0.228,0.264,12.88,-4.2,-4.48,-0.165,-0.352,-0.947
-0.82,0.224,0.254,9.87,-2.87,-6.09,-0.164,-0.352,-0.947
-0.8,0.221,0.246,7.0,-1.75,-8.54,-0.165,-0.35,-0.949
-0.785,0.219,0.245,5.11,-0.77,-10.08,-0.165,-0.353,-0.946
-0.77,0.215,0.236,3.71,0.77,-11.76,-0.167,-0.355,-0.945
-0.758,0.208,0.221,2.03,1.47,-12.81,-0.163,-0.356,-0.947
-0.793,0.2,0.205,1.47,0.21,-11.69,-0.163,-0.36,-0.95
-0.843,0.198,0.208,1.26,-0.14,-9.1,-0.156,-0.362,-0.944
-0.884,0.201,0.205,1.05,2.31,-5.74,-0.161,-0.364,-0.946
-0.916,0.207,0.192,0.7,4.34,-2.31,-0.161,-0.367,-0.944
-0.945,0.209,0.184,0.14,5.18,3.15,-0.158,-0.365,-0.944
-0.971,0.213,0.174,-2.66,6.16,5.39,-0.161,-0.362,-0.943
-0.981,0.226,0.164,-5.67,5.74,6.37,-0.159,-0.364,-0.944
-0.985,0.246,0.158,-7.77,5.25,5.81,-0.158,-0.359,-0.945
-0.983,0.258,0.153,-8.19,4.34,3.64,-0.163,-0.362,-0.944
-0.977,0.262,0.15,-7.84,3.36,0.35,-0.165,-0.36,-0.949
-0.966,0.261,0.145,-7.35,1.75,-4.83,-0.166,-0.361,-0.945
-0.949,0.25,0.138,-5.53,-0.91,-7.98,-0.167,-0.364,-0.945
-0.947,0.247,0.141,-3.78,-3.01,-10.57,-0.158,-0.362,-0.948
-0.95,0.242,0.144,-1.05,-4.83,-11.83,-0.165,-0.362,-0.949
-0.953,0.228,0.144,2.38,-6.37,-12.11,-0.162,-0.365,-0.948
-0.951,0.209,0.151,5.53,-7.91,-11.41,-0.16,-0.371,-0.947
-0.944,0.192,0.163,6.37,-9.59,-8.68,-0.159,-0.365,-0.946
-0.927,0.184,0.164,5.67,-10.64,-6.3,-0.159,-0.371,-0.946
-0.918,0.182,0.167,4.69,-11.9,-4.27,-0.16,-0.367,-0.943
-0.913,0.184,0.167,4.13,-12.39,-1.33,-0.16,-0.372,-0.944
-0.91,0.185,0.168,4.13,-12.95,1.61,-0.161,-0.373,-0.945
-0.918,0.19,0.17,4.62,-13.93,6.23,-0.16,-0.369,-0.943
-0.944,0.202,0.187,5.46,-14.84,9.38,-0.158,-0.37,-0.938
-0.981,0.206,0.197,6.51,-14.0,12.39,-0.162,-0.372,-0.939
-0.99,0.21,0.201,7.28,-12.88,14.91,-0.158,-0.37,-0.935
-1.001,0.216,0.206,7.21,-12.6,17.01,-0.159,-0.364,-0.941
-1.018,0.222,0.212,7.35,-12.11,18.9,-0.155,-0.367,-0.94
-1.034,0.23,0.221,7.21,-11.06,19.74,-0.161,-0.364,-0.937
-1.038,0.238,0.231,6.16,-7.56,18.34,-0.165,-0.363,-0.936
-1.013,0.239,0.229,4.62,-5.67,15.61,-0.166,-0.359,-0.934
-1.002,0.236,0.23,2.66,-5.04,11.76,-0.162,-0.357,-0.93
-1.004,0.237,0.236,0.28,-4.76,7.98,-0.164,-0.353,-0.93
-1.021,0.236,0.233,-1.54,-4.2,4.55,-0.162,-0.353,-0.931
-1.049,0.234,0.236,-2.59,-3.43,2.24,-0.167,-0.357,-0.933
-1.066,0.224,0.242,-2.73,0.35,1.61,-0.16,-0.357,-0.937
-1.04,0.211,0.237,-3.64,3.36,1.12,-0.165,-0.356,-0.935
-0.992,0.206,0.226,-5.74,5.46,0.07,-0.16,-0.351,-0.936
-0.953,0.209,0.218,-7.91,4.76,-1.82,-0.16,-0.357,-0.94
-0.926,0.214,0.213,-9.1,3.36,-3.43,-0.159,-0.359,-0.935
-0.913,0.223,0.208,-8.61,2.03,-5.04,-0.164,-0.36,-0.938
-0.913,0.228,0.204,-3.85,0.63,-5.25,-0.162,-0.36,-0.942
-0.925,0.227,0.203,1.05,-0.49,-4.97,-0.162,-0.356,-0.94
-0.938,0.22,0.201,7.0,-1.05,-3.85,-0.162,-0.359,-0.935
-0.945,0.212,0.196,12.81,-0.91,-1.19,-0.16,-0.363,-0.936
-0.945,0.205,0.187,35.49,-1.75,3.5,-0.162,-0.358,-0.938
-0.948,0.211,0.187,23.45,-2.8,6.02,-0.158,-0.361,-0.947
-0.957,0.208,0.203,26.95,-4.41,8.4,-0.161,-0.358,-0.944
-0.968,0.19,0.21,27.86,-5.25,9.38,-0.16,-0.36,-0.947
-0.976,0.172,0.208,23.66,-4.97,8.05,-0.158,-0.359,-0.948
-0.975,0.163,0.199,15.33,-3.29,5.39,-0.161,-0.359,-0.951
-0.974,0.19,0.226,6.23,-0.35,1.47,-0.164,-0.357,-0.952
-0.981,0.197,0.219,1.82,1.82,-0.07,-0.163,-0.36,-0.948
-0.994,0.156,0.226,0.07,1.12,-2.38,-0.167,-0.36,-0.945
-1.015,0.187,0.236,-4.62,1.26,-3.64,-0.165,-0.358,-0.948
-1.03,0.223,0.244,-6.02,1.33,-4.9,-0.167,-0.356,-0.951
-1.027,0.23,0.246,-2.87,1.96,-5.25,-0.165,-0.36,-0.955
-1.01,0.219,0.232,1.96,2.31,-5.53,-0.162,-0.357,-0.948
-1.0,0.19,0.227,6.44,1.89,-7.49,-0.161,-0.358,-0.95
-0.983,0.186,0.232,6.93,1.89,-8.26,-0.165,-0.359,-0.955
-0.974,0.188,0.228,7.0,2.17,-9.45,-0.168,-0.367,-0.954
-0.964,0.189,0.225,7.7,2.03,-10.5,-0.16,-0.362,-0.953
-0.949,0.191,0.216,9.38,2.59,-10.92,-0.162,-0.367,-0.954
-0.939,0.191,0.207,12.39,2.45,-10.64,-0.158,-0.371,-0.95
-0.939,0.19,0.202,16.45,1.54,-9.87,-0.157,-0.37,-0.956
-0.945,0.183,0.209,22.19,0.7,-7.77,-0.164,-0.369,-0.959
-0.95,0.172,0.213,24.57,1.19,-5.88,-0.158,-0.368,-0.961
-0.943,0.145,0.213,25.55,1.47,-4.34,-0.158,-0.369,-0.967
-0.938,0.115,0.211,22.4,1.19,-2.87,-0.157,-0.373,-0.975
-0.934,0.111,0.213,14.63,0.14,-1.26,-0.163,-0.373,-0.971
-0.934,0.147,0.207,3.22,-1.33,0.35,-0.157,-0.374,-0.97
-0.936,0.177,0.201,0.91,-2.17,1.82,-0.154,-0.373,-0.967
-0.936,0.191,0.196,2.38,-2.94,3.01,-0.156,-0.376,-0.971
-0.934,0.195,0.192,6.23,-3.57,4.13,-0.156,-0.371,-0.97
-0.936,0.194,0.189,9.45,-4.69,5.04,-0.16,-0.374,-0.967
-0.943,0.193,0.189,12.11,-6.09,5.88,-0.158,-0.371,-0.975
-0.953,0.191,0.191,14.91,-7.7,6.51,-0.16,-0.37,-0.978
-0.965,0.193,0.192,16.45,-8.82,6.86,-0.153,-0.366,-0.971
-0.969,0.191,0.184,17.29,-9.1,7.0,-0.16,-0.366,-0.974
-0.973,0.19,0.183,17.36,-9.59,6.37,-0.158,-0.368,-0.981
-0.98,0.215,0.212,17.36,-9.17,6.3,-0.159,-0.365,-0.978
-0.98,0.21,0.217,18.27,-8.12,6.3,-0.161,-0.365,-0.973
-0.975,0.13,0.23,17.57,-6.93,6.58,-0.157,-0.366,-0.976
-0.965,0.113,0.233,9.59,-6.44,5.95,-0.155,-0.367,-0.979
-0.964,0.135,0.239,-1.19,-7.56,3.99,-0.16,-0.369,-0.976
-0.969,0.177,0.241,-7.28,-8.26,3.08,-0.16,-0.365,-0.971
-0.972,0.203,0.238,-7.91,-9.03,2.94,-0.16,-0.362,-0.971
-0.973,0.209,0.238,-5.67,-9.38,3.15,-0.164,-0.361,-0.977
-0.976,0.206,0.238,-0.35,-9.94,3.36,-0.162,-0.361,-0.973
-0.985,0.203,0.241,3.01,-9.94,3.36,-0.163,-0.36,-0.974
-0.988,0.196,0.246,5.25,-9.38,2.73,-0.164,-0.364,-0.972
-0.989,0.186,0.244,5.53,-8.82,2.17,-0.164,-0.361,-0.97
-0.991,0.18,0.233,3.78,-7.28,1.54,-0.164,-0.358,-0.972
-0.989,0.178,0.224,1.12,-5.25,-0.28,-0.17,-0.36,-0.972
-0.986,0.18,0.224,-1.05,-3.64,-1.05,-0.167,-0.358,-0.968
-0.984,0.181,0.232,-1.61,-2.8,-1.75,-0.166,-0.362,-0.972
-0.977,0.179,0.24,-1.68,-1.68,-2.38,-0.16,-0.358,-0.973
-0.963,0.179,0.238,-1.47,-0.49,-2.59,-0.161,-0.358,-0.97
-0.954,0.175,0.225,-1.33,0.0,-2.1,-0.163,-0.355,-0.968
-0.954,0.168,0.214,-1.68,0.21,-1.68,-0.163,-0.361,-0.97
-0.964,0.165,0.208,-2.59,0.7,-0.84,-0.166,-0.359,-0.974
-0.982,0.169,0.209,-3.57,1.12,-0.07,-0.164,-0.36,-0.971
-0.985,0.176,0.209,-3.99,1.4,0.56,-0.163,-0.363,-0.968
-0.974,0.179,0.206,-4.06,1.68,0.77,-0.162,-0.36,-0.97
-0.964,0.181,0.204,-4.13,0.98,1.26,-0.165,-0.362,-0.974
-0.958,0.188,0.202,-3.92,0.21,1.33,-0.164,-0.358,-0.973
-0.956,0.194,0.198,-2.24,-0.42,1.54,-0.166,-0.361,-0.971
-0.953,0.198,0.194,-0.77,-0.56,1.61,-0.165,-0.359,-0.973
-0.956,0.194,0.192,1.05,-0.56,1.33,-0.168,-0.359,-0.972
-0.961,0.189,0.19,1.96,-0.49,1.33,-0.162,-0.355,-0.971
-0.968,0.184,0.189,1.68,-0.77,1.19,-0.161,-0.357,-0.969
-0.978,0.183,0.19,0.98,-1.33,1.05,-0.164,-0.355,-0.969
-0.989,0.188,0.194,-1.26,-2.1,0.63,-0.162,-0.359,-0.972
-0.988,0.194,0.194,-1.96,-2.52,0.56,-0.164,-0.36,-0.973
-0.983,0.196,0.192,-2.03,-2.8,0.07,-0.165,-0.363,-0.966
-0.976,0.201,0.19,-1.89,-2.94,-0.42,-0.164,-0.36,-0.974
-0.971,0.204,0.191,-0.98,-3.08,-1.26,-0.168,-0.36,-0.971
-0.959,0.201,0.192,1.33,-3.5,-2.03,-0.169,-0.356,-0.97
-0.959,0.194,0.192,2.52,-3.85,-2.59,-0.167,-0.363,-0.969
-0.963,0.187,0.196,3.08,-4.2,-3.01,-0.167,-0.359,-0.966
-0.968,0.18,0.198,3.01,-4.55,-3.15,-0.168,-0.36,-0.972
-0.972,0.176,0.2,2.24,-4.41,-2.8,-0.166,-0.358,-0.966
-0.976,0.174,0.198,0.56,-4.2,-2.38,-0.161,-0.36,-0.97
-0.978,0.181,0.201,-0.21,-4.13,-2.1,-0.162,-0.363,-0.966
-0.975,0.186,0.2,-0.42,-4.13,-1.82,-0.161,-0.359,-0.963
-0.973,0.189,0.196,-0.07,-3.99,-1.96,-0.162,-0.364,-0.962
-0.975,0.189,0.197,0.35,-4.55,-2.1,-0.162,-0.362,-0.966
-0.978,0.19,0.203,1.4,-4.62,-2.1,-0.163,-0.363,-0.963
-0.974,0.188,0.206,2.03,-4.2,-2.31,-0.157,-0.36,-0.968
-0.973,0.178,0.202,2.66,-4.55,-2.52,-0.164,-0.36,-0.97
-0.978,0.174,0.209,1.96,-4.76,-2.52,-0.164,-0.365,-0.968
-0.98,0.175,0.21,1.19,-3.64,-2.24,-0.164,-0.361,-0.97
-0.977,0.175,0.208,0.77,-3.08,-1.68,-0.161,-0.365,-0.969
-0.978,0.179,0.207,0.14,-3.01,-1.4,-0.163,-0.364,-0.966
-0.982,0.178,0.205,-0.42,-2.38,-1.4,-0.162,-0.366,-0.969
-0.98,0.177,0.203,-1.96,-1.75,-1.4,-0.165,-0.364,-0.965
-0.978,0.18,0.199,-3.15,-1.68,-1.68,-0.157,-0.366,-0.971
-0.979,0.185,0.198,-3.92,-1.61,-1.89,-0.16,-0.362,-0.966
-0.975,0.189,0.193,-3.99,-1.26,-2.1,-0.161,-0.367,-0.969
-0.973,0.189,0.19,-2.8,-1.33,-1.75,-0.157,-0.36,-0.968
-0.973,0.185,0.19,-1.82,-1.26,-1.61,-0.158,-0.361,-0.96
-0.972,0.181,0.19,-1.4,-1.12,-1.19,-0.159,-0.362,-0.962
-0.968,0.18,0.189,-1.47,-1.54,-0.7,-0.158,-0.363,-0.958
-0.969,0.181,0.188,-2.03,-1.82,-0.42,-0.159,-0.363,-0.962
-0.97,0.185,0.187,-2.17,-2.03,0.14,-0.159,-0.365,-0.969
-0.969,0.189,0.188,-2.17,-1.89,0.7,-0.157,-0.363,-0.964
-0.971,0.19,0.186,-2.52,-2.03,1.12,-0.159,-0.367,-0.963
-0.973,0.193,0.183,-2.73,-1.75,1.19,-0.161,-0.368,-0.968
-0.976,0.198,0.184,-3.22,-1.61,1.4,-0.163,-0.368,-0.962
-0.978,0.2,0.183,-3.22,-1.68,1.19,-0.16,-0.364,-0.962
-0.976,0.198,0.183,-2.94,-1.68,1.26,-0.159,-0.364,-0.96
-0.977,0.204,0.183,-3.71,-2.24,1.19,-0.162,-0.363,-0.969
-0.979,0.207,0.183,-3.22,-2.17,1.12,-0.162,-0.367,-0.965
-0.974,0.209,0.18,-2.8,-2.1,0.77,-0.158,-0.36,-0.962
-0.977,0.209,0.182,-2.31,-2.52,0.14,-0.161,-0.362,-0.962
-0.98,0.21,0.185,-1.89,-2.73,-0.56,-0.156,-0.36,-0.961
-0.98,0.208,0.184,-1.33,-2.8,-1.26,-0.161,-0.365,-0.963
-0.981,0.208,0.187,-0.91,-3.01,-1.75,-0.164,-0.361,-0.963
-0.98,0.207,0.191,-0.14,-3.01,-2.03,-0.163,-0.362,-0.96
-0.973,0.202,0.19,0.42,-3.15,-2.38,-0.165,-0.363,-0.961
-0.972,0.198,0.188,0.7,-3.36,-2.52,-0.16,-0.362,-0.96
-0.973,0.196,0.19,0.7,-3.5,-2.59,-0.158,-0.363,-0.958
