ax,ay,az,gx,gy,gz,mx,my,mz
0.096,0.962,0.27,10.22,-5.53,1.26,0.263,-0.491,-1.016
0.094,0.991,0.285,10.78,-5.53,-1.12,0.261,-0.493,-1.012
0.1,0.961,0.288,14.42,-4.83,-0.14,0.266,-0.494,-1.023
0.108,0.921,0.282,13.37,-4.55,0.14,0.261,-0.494,-1.016
0.107,0.907,0.29,11.55,-4.55,0.42,0.266,-0.496,-1.022
0.104,0.913,0.291,7.7,-4.27,0.56,0.267,-0.494,-1.025
0.105,0.926,0.292,4.83,-4.34,0.35,0.263,-0.492,-1.027
0.105,0.953,0.295,3.71,-4.27,0.28,0.262,-0.495,-1.021
0.101,0.954,0.298,6.65,-4.2,0.63,0.263,-0.492,-1.026
0.096,0.92,0.295,8.26,-4.83,0.91,0.262,-0.491,-1.025
0.093,0.926,0.301,8.47,-4.97,0.14,0.261,-0.488,-1.03
0.094,0.948,0.309,7.49,-4.83,-0.28,0.259,-0.487,-1.026
0.105,0.958,0.332,6.65,-3.43,-1.05,0.261,-0.492,-1.023
0.097,0.955,0.329,10.92,-2.87,-0.07,0.267,-0.489,-1.031
0.098,0.915,0.347,10.22,-2.38,-0.63,0.261,-0.491,-1.034
0.096,0.883,0.372,8.12,-2.31,-0.91,0.264,-0.493,-1.031
0.116,0.858,0.363,4.97,-4.97,0.07,0.261,-0.489,-1.033
0.137,0.893,0.371,0.14,-6.44,2.94,0.266,-0.489,-1.033
0.146,0.92,0.377,-3.78,-7.77,5.25,0.261,-0.491,-1.035
0.157,0.943,0.399,-11.62,-8.54,5.81,0.262,-0.493,-1.037
0.143,0.972,0.45,-18.9,-6.02,4.41,0.261,-0.492,-1.032
0.169,0.948,0.419,-25.13,-2.73,0.42,0.264,-0.495,-1.025
0.167,0.935,0.358,-28.56,-3.15,-4.9,0.267,-0.494,-1.024
0.195,0.959,0.373,-28.0,-4.9,-6.16,0.267,-0.497,-1.021
0.195,0.957,0.393,-22.96,-3.78,-8.19,0.266,-0.494,-1.017
0.183,0.97,0.448,-0.28,-0.7,-11.13,0.268,-0.499,-1.009
0.198,1.007,0.505,-13.3,2.94,-13.93,0.27,-0.5,-1.009
0.227,1.017,0.467,-7.28,6.02,-16.59,0.272,-0.501,-1.006
0.275,0.984,0.438,-0.56,7.49,-20.51,0.281,-0.504,-1.009
0.326,0.964,0.449,6.02,7.7,-23.59,0.287,-0.499,-1.01
0.328,0.906,0.475,14.35,7.28,-26.18,0.298,-0.503,-1.009
0.286,0.832,0.544,21.7,8.54,-28.35,0.298,-0.502,-1.004
0.295,0.819,0.534,24.36,10.08,-27.37,0.307,-0.503,-1.01
0.35,0.785,0.499,23.73,8.54,-25.62,0.313,-0.501,-1.011
0.368,0.809,0.527,18.62,4.55,-25.69,0.319,-0.502,-1.011
0.336,0.808,0.561,16.38,1.26,-25.69,0.324,-0.5,-1.019
0.308,0.792,0.534,21.98,-0.21,-20.93,0.33,-0.502,-1.018
0.293,0.784,0.496,27.58,0.35,-14.56,0.339,-0.503,-1.018
0.277,0.781,0.447,22.89,3.29,-10.43,0.342,-0.498,-1.018
0.254,0.807,0.455,13.37,5.74,-8.33,0.34,-0.501,-1.021
0.238,0.856,0.446,4.9,7.91,-7.91,0.349,-0.5,-1.019
0.232,0.893,0.432,3.71,9.94,-7.28,0.349,-0.504,-1.015
0.243,0.936,0.422,7.91,11.9,-7.14,0.356,-0.498,-1.014
0.255,0.966,0.411,22.47,14.21,-5.81,0.357,-0.496,-1.017
0.246,0.971,0.387,25.9,16.24,-5.88,0.365,-0.499,-1.019
0.233,1.006,0.36,22.82,18.62,-6.86,0.37,-0.498,-1.022
0.21,1.002,0.324,17.78,20.93,-7.56,0.372,-0.5,-1.029
0.199,1.001,0.314,14.7,22.33,-6.93,0.373,-0.494,-1.031
0.188,0.967,0.271,12.95,24.29,-4.48,0.378,-0.499,-1.024
0.202,0.944,0.266,12.53,23.38,-1.61,0.379,-0.499,-1.027
0.224,0.937,0.269,9.94,22.89,1.47,0.381,-0.496,-1.022
0.236,0.96,0.238,10.92,21.77,4.83,0.383,-0.5,-1.022
0.23,0.98,0.262,13.58,20.02,7.49,0.382,-0.498,-1.019
0.212,0.961,0.305,14.42,19.88,13.51,0.384,-0.501,-1.021
0.211,0.957,0.333,7.35,19.95,15.26,0.381,-0.504,-1.02
0.229,0.98,0.322,0.63,19.25,15.82,0.385,-0.505,-1.017
0.22,0.974,0.317,0.35,18.62,16.38,0.385,-0.501,-1.011
0.236,0.965,0.309,2.1,18.27,17.15,0.382,-0.5,-1.016
0.228,0.981,0.281,3.5,18.55,17.85,0.38,-0.504,-1.015
0.203,0.965,0.297,-0.07,19.88,18.9,0.381,-0.505,-1.01
0.205,0.95,0.289,-4.76,21.35,19.25,0.378,-0.507,-1.012
0.209,0.99,0.282,-5.81,20.86,18.69,0.379,-0.509,-1.012
0.198,1.015,0.302,1.05,22.12,18.34,0.383,-0.51,-1.003
0.176,1.019,0.32,8.54,24.57,18.76,0.379,-0.513,-1.005
0.155,0.99,0.304,3.15,27.23,17.71,0.379,-0.512,-1.003
0.192,0.968,0.365,-4.41,25.34,19.18,0.377,-0.515,-1.002
0.183,0.953,0.35,1.54,24.71,23.66,0.372,-0.51,-1.002
0.156,0.926,0.315,7.7,24.85,30.38,0.37,-0.508,-0.996
0.134,0.911,0.302,10.43,23.8,34.51,0.366,-0.514,-1.004
0.115,0.933,0.282,6.3,22.54,37.24,0.363,-0.517,-0.998
0.1,0.909,0.261,2.24,21.77,41.58,0.355,-0.519,-0.994
0.081,0.91,0.307,4.2,20.51,42.63,0.356,-0.521,-1.002
0.082,0.94,0.344,6.93,22.4,46.41,0.348,-0.522,-1.002
0.089,0.922,0.36,10.36,25.83,51.52,0.346,-0.524,-0.991
0.076,0.901,0.391,10.5,28.0,56.98,0.338,-0.526,-1.001
0.062,0.882,0.394,10.78,31.15,63.7,0.334,-0.532,-1.0
0.108,0.808,0.159,11.55,34.23,71.96,0.322,-0.532,-1.001
0.205,0.668,-0.056,14.7,26.04,74.34,0.306,-0.533,-0.999
-0.048,0.932,0.289,-17.85,11.55,74.34,0.305,-0.534,-0.993
-0.143,1.142,0.426,-26.04,15.33,69.649,0.294,-0.538,-0.99
-0.099,1.063,0.332,-7.91,28.0,61.669,0.285,-0.545,-0.982
-0.052,0.949,0.281,10.99,34.72,53.899,0.281,-0.542,-0.986
-0.062,0.955,0.193,8.47,37.87,50.82,0.267,-0.55,-0.98
-0.084,0.988,0.217,-5.04,35.28,34.51,0.271,-0.548,-0.984
-0.091,0.962,0.328,-10.92,35.35,28.84,0.266,-0.552,-0.975
-0.066,0.928,0.335,-7.63,35.84,25.13,0.263,-0.551,-0.973
-0.054,0.904,0.303,-2.59,34.79,23.87,0.256,-0.549,-0.973
-0.066,0.884,0.264,1.68,32.69,23.94,0.251,-0.548,-0.975
-0.073,0.867,0.247,1.75,29.89,24.01,0.252,-0.549,-0.978
-0.074,0.874,0.252,-1.19,25.76,22.75,0.25,-0.55,-0.973
-0.071,0.844,0.278,-0.7,26.18,22.61,0.246,-0.551,-0.969
-0.041,0.87,0.222,-4.27,25.13,21.0,0.243,-0.549,-0.967
-0.005,0.822,0.225,-10.85,22.75,17.85,0.238,-0.547,-0.969
-0.014,0.906,0.244,-9.73,18.69,18.41,0.241,-0.548,-0.973
-0.016,0.886,0.275,-7.35,16.73,17.5,0.235,-0.551,-0.964
-0.062,0.915,0.307,0.35,15.05,16.94,0.234,-0.555,-0.965
-0.079,0.898,0.299,8.75,16.73,16.73,0.228,-0.55,-0.959
-0.072,0.903,0.287,11.97,17.71,16.24,0.23,-0.552,-0.965
-0.066,0.887,0.281,13.16,18.69,16.73,0.23,-0.557,-0.964
-0.06,0.838,0.291,13.02,20.51,18.27,0.226,-0.558,-0.968
-0.06,0.836,0.285,9.66,20.65,24.57,0.223,-0.56,-0.967
-0.077,0.886,0.299,8.75,19.53,26.88,0.223,-0.555,-0.973
-0.073,0.911,0.308,11.83,19.32,27.93,0.217,-0.557,-0.971
-0.108,0.948,0.361,10.64,18.55,27.02,0.215,-0.557,-0.975
-0.115,0.975,0.358,10.92,18.06,23.73,0.213,-0.558,-0.973
-0.108,0.986,0.354,14.35,16.59,21.42,0.208,-0.558,-0.976
-0.093,0.97,0.341,23.8,15.4,21.42,0.204,-0.553,-0.975
-0.076,0.891,0.328,28.0,16.1,21.0,0.208,-0.561,-0.982
-0.08,0.874,0.339,24.15,15.96,22.89,0.202,-0.561,-0.987
-0.052,0.943,0.262,17.71,16.31,23.59,0.2,-0.56,-0.987
-0.132,0.916,0.314,11.2,19.46,20.72,0.192,-0.561,-0.987
-0.121,0.883,0.264,3.22,21.84,14.35,0.192,-0.555,-0.99
-0.137,0.833,0.285,-21.91,19.53,10.29,0.191,-0.556,-0.983
-0.156,0.825,0.287,-34.51,17.85,8.61,0.19,-0.556,-0.983
-0.11,0.789,0.307,-41.23,16.24,7.77,0.188,-0.558,-0.976
-0.129,0.924,0.277,-31.85,15.82,15.47,0.181,-0.56,-0.97
-0.094,0.885,0.259,-11.97,17.92,19.74,0.18,-0.558,-0.964
-0.067,0.886,0.256,7.14,23.66,32.55,0.18,-0.559,-0.972
-0.142,0.861,0.31,11.13,27.86,36.61,0.178,-0.559,-0.968
-0.298,1.033,0.286,-2.94,23.45,28.28,0.175,-0.558,-0.973
-0.268,1.028,0.371,-5.88,16.66,12.67,0.168,-0.559,-0.97
-0.173,0.964,0.344,10.64,11.97,7.91,0.164,-0.558,-0.964
-0.186,0.872,0.407,22.4,6.37,7.07,0.168,-0.559,-0.971
-0.222,0.785,0.468,25.06,4.97,8.26,0.168,-0.559,-0.971
-0.223,0.833,0.42,22.96,5.67,7.7,0.162,-0.558,-0.98
-0.207,0.851,0.374,20.37,5.95,6.16,0.166,-0.557,-0.983
-0.175,0.833,0.338,14.14,5.25,4.06,0.164,-0.561,-0.981
-0.157,0.861,0.358,-0.14,2.94,-0.07,0.166,-0.556,-0.985
-0.136,0.871,0.36,-2.31,1.96,-2.17,0.167,-0.558,-0.983
-0.123,0.851,0.346,3.71,1.05,-1.05,0.165,-0.56,-0.982
-0.133,0.865,0.336,6.44,-1.12,2.17,0.164,-0.561,-0.983
-0.145,0.906,0.318,8.26,-1.82,2.1,0.168,-0.558,-0.993
-0.148,0.893,0.33,7.21,-2.03,0.28,0.164,-0.559,-0.986
-0.128,0.871,0.36,3.29,-1.96,-1.05,0.163,-0.559,-0.991
-0.106,0.889,0.372,0.14,-1.82,-0.84,0.163,-0.553,-0.991
-0.122,0.884,0.378,2.59,-0.7,-0.14,0.163,-0.561,-0.992
-0.132,0.877,0.37,1.4,-0.14,0.77,0.167,-0.56,-0.989
-0.131,0.911,0.365,-2.52,-1.68,0.84,0.167,-0.561,-0.987
-0.131,0.928,0.372,-1.47,-2.17,0.42,0.164,-0.558,-0.982
-0.143,0.93,0.353,1.4,-2.17,0.07,0.163,-0.56,-0.985
-0.136,0.875,0.384,4.55,-1.82,0.21,0.166,-0.558,-0.987
-0.129,0.858,0.388,2.59,-2.73,1.75,0.163,-0.559,-0.989
-0.127,0.881,0.389,-0.21,-4.34,1.96,0.165,-0.557,-0.986
-0.148,0.892,0.391,3.15,-3.92,2.45,0.162,-0.561,-0.982
-0.161,0.873,0.39,5.25,-3.22,3.5,0.164,-0.556,-0.99
-0.16,0.864,0.398,3.36,-3.36,3.43,0.166,-0.554,-0.993
-0.15,0.89,0.4,0.84,-4.2,3.57,0.161,-0.557,-0.989
-0.159,0.9,0.388,1.82,-3.22,3.43,0.163,-0.557,-0.985
-0.173,0.905,0.399,0.42,-2.38,3.5,0.161,-0.558,-0.988
-0.153,0.915,0.389,0.91,-2.38,2.87,0.162,-0.556,-0.989
-0.156,0.94,0.409,0.63,-2.87,1.82,0.163,-0.562,-0.99
-0.154,0.945,0.396,5.39,-2.8,-0.98,0.164,-0.558,-0.983
-0.154,0.911,0.371,9.73,-3.64,-2.87,0.161,-0.559,-0.988
-0.152,0.916,0.352,9.24,-6.65,-4.83,0.159,-0.559,-0.988
-0.164,0.888,0.362,3.64,-10.71,-10.78,0.162,-0.557,-0.995
-0.164,0.845,0.395,-2.17,-13.79,-15.54,0.162,-0.558,-0.996
-0.164,0.805,0.396,-7.0,-17.22,-19.25,0.168,-0.56,-0.999
-0.139,0.83,0.372,-8.47,-21.21,-19.18,0.164,-0.562,-0.994
-0.144,0.836,0.371,-6.37,-24.01,-18.48,0.171,-0.561,-0.988
-0.168,0.861,0.363,-2.59,-25.2,-16.59,0.173,-0.567,-0.995
-0.199,0.928,0.371,11.97,-28.49,-9.73,0.172,-0.562,-1.0
-0.2,1.008,0.345,31.99,-33.39,-7.98,0.174,-0.56,-1.003
-0.212,0.929,0.278,53.62,-37.8,-13.93,0.178,-0.562,-1.007
-0.236,0.779,0.25,53.27,-43.82,-20.79,0.177,-0.556,-1.014
-0.26,0.723,0.298,12.81,-52.29,-27.16,0.184,-0.557,-1.016
-0.296,0.791,0.331,-10.78,-53.48,-30.59,0.183,-0.559,-1.017
-0.292,0.843,0.348,-21.14,-53.83,-32.76,0.188,-0.558,-1.018
-0.221,0.908,0.385,-21.21,-55.44,-32.76,0.191,-0.558,-1.006
-0.203,0.906,0.354,-10.15,-54.67,-34.02,0.198,-0.56,-1.007
-0.254,0.831,0.34,-2.38,-54.18,-37.8,0.197,-0.559,-1.011
-0.265,0.739,0.333,-12.88,-56.14,-40.95,0.204,-0.555,-1.01
-0.209,0.796,0.364,-23.31,-57.61,-41.72,0.209,-0.551,-1.008
-0.142,0.86,0.397,-22.12,-55.51,-38.99,0.216,-0.553,-1.0
-0.146,0.906,0.365,-12.95,-50.61,-35.28,0.217,-0.553,-1.003
-0.165,0.886,0.3,-2.24,-44.8,-33.67,0.221,-0.554,-1.002
-0.126,0.839,0.288,-1.75,-41.3,-32.9,0.219,-0.554,-0.999
0.017,0.772,0.412,-13.37,-40.46,-30.1,0.229,-0.549,-1.001
0.032,0.83,0.456,-18.9,-36.61,-25.55,0.228,-0.551,-1.001
0.012,0.943,0.393,-13.37,-31.43,-21.14,0.229,-0.55,-0.998
-0.025,0.979,0.309,-4.2,-26.67,-22.05,0.235,-0.556,-1.002
-0.037,0.971,0.251,-1.19,-25.69,-27.65,0.241,-0.555,-1.004
-0.03,0.969,0.352,-10.43,-28.14,-35.98,0.244,-0.548,-1.003
-0.065,0.959,0.372,-8.75,-26.32,-40.04,0.247,-0.547,-1.0
-0.107,0.93,0.316,-3.36,-24.15,-42.98,0.254,-0.549,-0.997
-0.148,0.924,0.221,1.54,-24.85,-43.4,0.259,-0.55,-1.003
-0.187,0.902,0.176,-2.87,-29.54,-47.88,0.263,-0.552,-1.006
-0.149,0.857,0.21,-7.63,-39.9,-52.78,0.274,-0.547,-0.999
-0.112,0.838,0.299,-9.1,-48.72,-52.5,0.275,-0.548,-1.008
-0.068,0.758,0.263,0.42,-51.03,-47.39,0.287,-0.545,-1.003
-0.025,0.728,0.188,1.4,-52.08,-40.95,0.29,-0.545,-1.005
0.029,0.75,0.166,-6.93,-56.7,-35.91,0.289,-0.542,-1.004
0.045,0.807,0.214,-20.58,-60.2,-34.16,0.293,-0.541,-1.006
0.066,0.852,0.252,-32.2,-59.43,-32.76,0.299,-0.539,-1.006
0.009,0.911,0.287,-45.15,-53.9,-34.09,0.303,-0.536,-1.003
0.054,0.955,0.265,-45.15,-52.85,-35.63,0.303,-0.539,-0.999
0.106,0.983,0.326,-40.32,-52.85,-35.42,0.305,-0.534,-0.998
0.127,0.96,0.4,-37.17,-49.35,-33.25,0.312,-0.538,-0.993
0.097,0.954,0.407,-37.52,-43.96,-32.06,0.308,-0.533,-0.994
0.097,0.997,0.365,-38.5,-38.85,-31.64,0.323,-0.534,-0.988
0.114,0.99,0.308,-36.75,-34.51,-30.45,0.319,-0.533,-0.982
0.149,0.98,0.275,-34.72,-35.07,-29.4,0.325,-0.536,-0.972
0.111,1.06,0.337,-29.82,-34.37,-29.61,0.326,-0.531,-0.973
0.083,1.068,0.316,-19.67,-30.52,-28.49,0.329,-0.534,-0.973
0.1,1.005,0.314,-14.0,-27.65,-27.72,0.335,-0.527,-0.978
0.133,0.981,0.299,-16.17,-26.11,-27.16,0.335,-0.526,-0.974
0.155,0.994,0.289,-15.61,-25.69,-27.44,0.339,-0.522,-0.971
0.136,1.009,0.312,-9.03,-24.36,-25.48,0.338,-0.524,-0.978
0.123,0.999,0.299,-2.94,-22.12,-23.87,0.341,-0.525,-0.975
0.111,0.997,0.283,1.12,-20.02,-22.96,0.339,-0.524,-0.979
0.1,0.928,0.289,5.32,-16.66,-22.05,0.344,-0.519,-0.978
0.15,0.882,0.252,15.12,-14.91,-16.73,0.348,-0.518,-0.977
0.243,0.893,0.313,23.03,-19.39,-12.04,0.349,-0.523,-0.977
0.27,0.909,0.352,33.04,-23.17,-6.09,0.349,-0.523,-0.988
0.25,0.911,0.315,43.19,-25.41,-1.33,0.35,-0.52,-0.991
0.189,0.951,0.28,40.32,-27.23,1.4,0.35,-0.526,-1.001
0.094,1.003,0.231,17.78,-31.15,-2.73,0.348,-0.524,-1.004
0.046,1.049,0.242,2.17,-32.69,-6.44,0.347,-0.521,-1.008
0.045,1.09,0.266,-3.22,-31.85,-9.45,0.352,-0.521,-1.007
0.046,1.075,0.238,1.68,-28.14,-9.24,0.349,-0.516,-1.008
0.044,0.998,0.216,4.41,-24.78,-6.65,0.347,-0.516,-1.006
0.039,0.967,0.215,-12.18,-21.35,-4.62,0.35,-0.514,-1.006
0.043,1.034,0.187,-24.15,-19.74,-4.34,0.345,-0.515,-1.011
0.059,1.091,0.208,-26.46,-18.27,-3.36,0.349,-0.516,-1.008
0.077,1.11,0.225,-22.12,-16.52,-1.19,0.35,-0.512,-1.004
0.092,1.119,0.242,-15.4,-15.12,1.26,0.349,-0.512,-1.0
0.109,1.079,0.226,-10.01,-14.63,3.85,0.345,-0.513,-1.002
0.161,1.049,0.245,-5.6,-18.34,6.51,0.344,-0.517,-1.003
0.152,1.047,0.268,-5.88,-21.98,8.4,0.345,-0.51,-0.999
0.15,1.033,0.28,-9.73,-24.15,9.38,0.342,-0.513,-1.002
0.144,1.055,0.243,-12.67,-25.34,9.24,0.339,-0.514,-1.004
0.15,1.064,0.216,-10.01,-25.69,9.8,0.335,-0.515,-0.998
0.143,1.035,0.203,-5.18,-26.25,10.43,0.332,-0.518,-0.996
0.118,0.996,0.241,-8.75,-26.88,10.08,0.331,-0.518,-1.0
0.1,0.99,0.255,-15.12,-25.06,9.17,0.326,-0.519,-0.996
0.077,0.989,0.245,-19.74,-22.82,7.42,0.329,-0.52,-1.001
0.067,0.991,0.24,-20.51,-20.65,5.88,0.319,-0.518,-0.996
0.067,0.986,0.231,-14.0,-17.5,2.73,0.319,-0.517,-0.999
0.089,0.933,0.21,-7.56,-15.12,1.61,0.32,-0.52,-0.998
0.096,0.889,0.207,-4.41,-14.63,0.91,0.314,-0.517,-0.994
0.082,0.898,0.268,-5.46,-15.26,-0.63,0.313,-0.516,-0.992
0.078,0.919,0.327,-5.88,-14.35,-2.31,0.311,-0.515,-0.992
0.11,0.9,0.33,-5.95,-12.18,-4.62,0.313,-0.517,-0.996
0.144,0.863,0.33,-5.81,-10.08,-5.74,0.311,-0.513,-0.995
0.148,0.857,0.35,-5.11,-8.26,-5.18,0.312,-0.515,-0.996
0.133,0.913,0.354,-7.21,-6.86,-5.88,0.306,-0.508,-0.996
0.117,0.981,0.376,-8.12,-5.88,-7.7,0.305,-0.508,-0.992
0.105,1.047,0.342,-8.4,-4.13,-11.2,0.304,-0.513,-0.995
0.113,1.086,0.309,-9.87,-2.73,-15.75,0.308,-0.509,-0.987
0.129,1.07,0.315,-9.87,-3.01,-20.79,0.306,-0.504,-0.994
0.132,1.096,0.333,-12.88,-3.01,-26.11,0.314,-0.506,-0.991
0.116,1.113,0.382,-16.52,-1.68,-31.64,0.31,-0.503,-0.988
0.09,1.06,0.436,-13.93,0.77,-36.26,0.313,-0.502,-0.989
0.092,0.98,0.418,-9.03,5.11,-38.01,0.315,-0.498,-0.989
0.131,0.899,0.322,-11.55,9.17,-39.55,0.322,-0.492,-0.986
0.187,0.873,0.202,-11.48,7.14,-37.8,0.319,-0.493,-0.987
0.257,0.91,0.2,-7.56,2.45,-35.7,0.325,-0.491,-0.987
0.268,0.893,0.223,-2.66,-1.33,-33.67,0.334,-0.487,-0.979
0.27,0.815,0.226,-2.31,-3.29,-32.83,0.334,-0.485,-0.986
0.271,0.81,0.196,-6.16,-4.83,-30.66,0.336,-0.484,-0.983
0.267,0.878,0.168,-6.3,-8.47,-27.3,0.339,-0.483,-0.986
0.255,0.871,0.17,4.13,-10.64,-24.01,0.342,-0.482,-0.983
0.232,0.815,0.208,18.2,-12.95,-20.23,0.347,-0.481,-0.99
0.213,0.786,0.265,27.09,-12.95,-16.52,0.347,-0.481,-0.993
0.2,0.777,0.324,25.06,-10.01,-14.98,0.346,-0.477,-0.987
0.198,0.766,0.35,14.91,-4.48,-14.35,0.353,-0.476,-0.992
0.22,0.774,0.323,-5.11,6.23,-12.95,0.347,-0.475,-0.997
0.251,0.838,0.273,-18.69,12.81,-10.78,0.346,-0.474,-0.993
0.265,0.914,0.258,-28.56,18.34,-8.33,0.346,-0.472,-0.993
0.261,0.941,0.262,-39.62,24.5,-7.21,0.349,-0.472,-0.979
0.269,0.944,0.204,-53.55,30.59,-7.91,0.35,-0.472,-0.979
0.351,1.114,-0.03,-16.87,8.05,-9.45,0.35,-0.469,-0.947
0.326,0.965,0.152,24.5,3.92,-13.16,0.348,-0.464,-0.958
0.358,0.917,0.092,31.22,2.03,-12.74,0.356,-0.459,-0.957
0.363,0.883,0.098,38.08,-1.89,-10.92,0.352,-0.455,-0.957
0.33,0.862,0.154,40.11,-3.78,-9.59,0.354,-0.458,-0.964
0.302,0.819,0.243,34.37,-4.48,-7.98,0.36,-0.457,-0.967
0.288,0.76,0.256,24.64,-3.5,-5.88,0.357,-0.457,-0.971
0.292,0.77,0.246,9.87,-2.52,-4.69,0.361,-0.461,-0.971
0.3,0.79,0.194,-0.56,-0.35,-0.42,0.361,-0.464,-0.971
0.293,0.803,0.185,-10.78,1.05,2.45,0.356,-0.46,-0.97
0.276,0.807,0.222,-19.88,2.8,3.92,0.361,-0.459,-0.965
0.266,0.79,0.248,-27.51,6.23,4.06,0.357,-0.462,-0.956
0.282,0.796,0.247,-32.9,11.34,3.78,0.356,-0.459,-0.954
0.312,0.878,0.223,-28.7,18.34,7.49,0.355,-0.459,-0.953
0.312,0.951,0.162,23.03,28.42,27.51,0.352,-0.459,-0.95
0.317,0.882,0.071,41.51,29.82,32.55,0.347,-0.466,-0.952
0.344,0.872,-0.008,25.2,27.58,29.68,0.342,-0.468,-0.952
0.339,0.914,-0.05,-8.33,20.3,22.12,0.343,-0.466,-0.948
0.274,1.117,-0.012,-61.88,4.9,-1.05,0.335,-0.465,-0.938
0.287,1.113,0.005,-52.99,3.29,-4.76,0.338,-0.466,-0.933
0.303,1.076,0.026,-19.32,3.15,-5.81,0.338,-0.469,-0.925
0.282,0.983,0.071,0.35,3.22,-4.55,0.338,-0.466,-0.921
0.253,0.905,0.125,10.29,5.18,-2.8,0.34,-0.469,-0.93
0.25,0.812,0.126,8.26,8.61,-0.42,0.338,-0.47,-0.928
0.263,0.747,0.099,-0.98,11.83,3.36,0.343,-0.468,-0.928
0.269,0.742,0.084,-30.87,14.35,10.5,0.336,-0.472,-0.916
0.238,0.776,0.073,-26.74,14.84,15.89,0.335,-0.47,-0.916
0.219,0.821,0.083,-26.04,15.26,22.4,0.327,-0.473,-0.915
0.202,0.833,0.113,-22.96,17.29,28.0,0.329,-0.471,-0.908
0.185,0.835,0.132,-17.92,20.65,34.37,0.324,-0.472,-0.909
0.191,0.848,0.071,-17.15,25.97,41.58,0.315,-0.469,-0.897
0.196,0.862,-0.092,-23.24,27.79,42.7,0.31,-0.475,-0.897
0.193,0.958,-0.165,-24.08,23.31,45.57,0.301,-0.475,-0.896
0.173,1.026,-0.177,-14.91,16.87,48.23,0.297,-0.477,-0.895
0.11,1.018,-0.07,12.18,10.99,52.01,0.282,-0.478,-0.894
0.091,1.003,-0.023,14.42,12.11,51.73,0.275,-0.481,-0.893
0.078,0.994,0.012,9.73,15.12,49.139,0.265,-0.487,-0.9
0.071,0.96,0.034,4.97,20.02,49.629,0.263,-0.489,-0.898
0.069,0.941,-0.024,-3.5,26.46,53.27,0.25,-0.49,-0.892
0.055,0.994,-0.108,-7.42,25.27,56.7,0.244,-0.495,-0.888
0.039,1.082,-0.13,2.03,21.63,59.57,0.233,-0.488,-0.891
0.009,1.094,-0.131,22.05,14.14,60.34,0.226,-0.493,-0.892
0.001,1.047,-0.04,30.94,7.91,56.0,0.217,-0.494,-0.89
0.04,1.0,-0.066,17.29,5.39,49.629,0.209,-0.492,-0.899
-0.029,1.047,0.16,7.63,5.32,41.3,0.201,-0.493,-0.898
-0.109,1.35,0.198,2.38,15.96,35.14,0.196,-0.498,-0.894
-0.136,1.257,0.186,39.48,19.67,28.49,0.19,-0.491,-0.904
-0.095,1.04,0.27,65.52,32.62,37.94,0.181,-0.499,-0.909
-0.053,0.871,0.229,56.629,37.38,37.24,0.178,-0.489,-0.919
-0.081,1.049,0.101,5.32,36.89,27.79,0.174,-0.498,-0.91
0.014,1.134,-0.074,-10.08,32.34,18.13,0.167,-0.495,-0.914
0.072,1.144,-0.263,-11.97,24.78,12.53,0.163,-0.497,-0.905
0.023,1.15,-0.219,-1.82,16.66,5.74,0.16,-0.491,-0.902
-0.036,1.191,-0.07,1.96,15.89,3.64,0.163,-0.491,-0.903
-0.047,1.136,0.035,1.05,16.52,-6.86,0.158,-0.491,-0.902
-0.028,0.948,0.021,-4.06,19.95,-14.35,0.162,-0.487,-0.9
-0.012,0.907,-0.051,-14.21,19.46,-18.41,0.165,-0.489,-0.9
-0.007,0.899,-0.09,-23.1,15.89,-19.04,0.164,-0.49,-0.897
-0.015,0.916,-0.108,-25.83,11.55,-14.42,0.168,-0.492,-0.899
-0.031,0.95,-0.097,-29.33,6.02,-6.93,0.169,-0.492,-0.892
