ax,ay,az,gx,gy,gz,mx,my,mz
-0.943,0.311,0.067,1.68,-1.19,1.4,-0.165,-0.367,-0.855
-0.958,0.313,0.061,1.05,-1.75,0.98,-0.16,-0.369,-0.896
-0.975,0.316,0.057,0.28,-0.7,0.77,-0.163,-0.371,-0.859
-0.966,0.321,0.059,0.0,-0.14,1.61,-0.164,-0.367,-0.862
-0.96,0.326,0.06,1.4,-1.33,1.47,-0.166,-0.371,-0.863
-0.967,0.32,0.058,2.73,-2.52,1.89,-0.164,-0.369,-0.86
-0.969,0.316,0.058,3.01,-2.59,2.66,-0.166,-0.367,-0.859
-0.959,0.315,0.061,3.71,-1.54,3.29,-0.159,-0.371,-0.857
-0.953,0.316,0.064,3.64,-2.24,3.57,-0.161,-0.365,-0.857
-0.952,0.316,0.062,4.27,-3.5,4.41,-0.167,-0.367,-0.855
-0.957,0.318,0.063,5.95,-4.13,4.83,-0.165,-0.364,-0.856
-0.974,0.313,0.062,7.0,-3.99,5.18,-0.168,-0.365,-0.858
-0.989,0.308,0.059,6.79,-4.27,5.6,-0.168,-0.365,-0.851
-0.989,0.308,0.056,6.3,-3.01,5.95,-0.17,-0.362,-0.861
-0.973,0.307,0.061,6.79,-2.94,6.58,-0.169,-0.364,-0.862
-0.952,0.308,0.083,7.42,-5.32,7.56,-0.169,-0.361,-0.852
-0.939,0.303,0.064,10.22,-4.69,7.56,-0.17,-0.365,-0.862
-0.917,0.286,0.063,12.81,-4.83,9.31,-0.164,-0.368,-0.861
-0.918,0.278,0.079,11.69,-4.97,9.31,-0.166,-0.364,-0.857
-0.927,0.282,0.083,8.68,-4.97,9.1,-0.169,-0.363,-0.862
-0.949,0.309,0.079,6.72,-6.09,10.85,-0.168,-0.362,-0.863
-0.978,0.337,0.079,9.31,-8.33,14.91,-0.17,-0.356,-0.861
-1.001,0.377,0.095,13.93,-11.2,18.69,-0.168,-0.358,-0.867
-1.0,0.393,0.114,21.35,-12.53,21.07,-0.169,-0.359,-0.863
-0.977,0.383,0.16,29.82,-12.25,22.05,-0.173,-0.355,-0.869
-0.935,0.352,0.188,33.95,-9.03,20.02,-0.173,-0.353,-0.861
-0.879,0.337,0.161,31.08,-6.86,15.19,-0.175,-0.359,-0.861
-0.849,0.355,0.181,29.68,-2.38,9.31,-0.173,-0.36,-0.858
-0.808,0.34,0.204,32.41,7.28,0.98,-0.175,-0.356,-0.865
-0.788,0.317,0.206,31.01,8.61,-4.27,-0.178,-0.357,-0.868
-0.83,0.296,0.229,28.35,11.62,-10.36,-0.174,-0.358,-0.869
-0.842,0.28,0.216,22.05,16.87,-13.37,-0.175,-0.364,-0.872
-0.832,0.282,0.204,12.04,22.54,-14.98,-0.171,-0.366,-0.876
-0.819,0.309,0.209,1.68,27.23,-19.74,-0.145,-0.37,-0.878
-0.795,0.348,0.222,-4.69,31.29,-26.32,-0.172,-0.37,-0.881
-0.76,0.377,0.221,-4.2,34.3,-31.22,-0.175,-0.373,-0.887
-0.724,0.388,0.23,2.03,37.52,-37.38,-0.174,-0.384,-0.896
-0.659,0.394,0.218,11.13,40.67,-43.26,-0.172,-0.386,-0.898
-0.625,0.383,0.205,14.49,43.47,-50.89,-0.169,-0.386,-0.9
-0.61,0.38,0.197,18.41,43.26,-57.68,-0.162,-0.395,-0.9
-0.646,0.374,0.191,22.61,42.21,-62.86,-0.163,-0.401,-0.908
-0.718,0.38,0.175,25.34,39.48,-64.4,-0.159,-0.409,-0.92
-0.808,0.395,0.195,29.12,37.73,-59.85,-0.152,-0.415,-0.921
-0.87,0.406,0.238,34.09,39.2,-50.61,-0.148,-0.418,-0.93
-0.878,0.418,0.238,35.84,36.68,-40.39,-0.148,-0.43,-0.942
-0.889,0.448,0.217,33.18,34.09,-28.84,-0.149,-0.43,-0.94
-0.917,0.483,0.25,28.91,35.56,-25.27,-0.146,-0.436,-0.959
-0.916,0.504,0.303,24.15,36.26,-25.06,-0.139,-0.436,-0.957
-0.9,0.524,0.326,21.77,35.28,-26.6,-0.139,-0.439,-0.961
-0.9,0.542,0.334,24.92,33.04,-28.0,-0.132,-0.443,-0.974
-0.908,0.546,0.324,30.87,34.93,-29.75,-0.13,-0.444,-0.973
-0.906,0.517,0.303,33.04,37.8,-31.85,-0.124,-0.445,-0.979
-0.91,0.499,0.313,28.0,41.09,-36.4,-0.125,-0.451,-0.988
-0.882,0.506,0.31,12.32,43.26,-47.95,-0.119,-0.455,-0.995
-0.808,0.548,0.341,11.9,43.82,-53.13,-0.113,-0.464,-0.997
-0.741,0.537,0.38,20.23,43.4,-57.19,-0.107,-0.462,-1.01
-0.676,0.514,0.355,28.49,41.51,-60.13,-0.096,-0.475,-1.014
-0.673,0.468,0.327,33.74,37.03,-61.53,-0.094,-0.478,-1.019
-0.736,0.438,0.369,32.27,35.91,-60.41,-0.084,-0.487,-1.025
-0.717,0.471,0.404,20.79,39.62,-59.15,-0.075,-0.489,-1.036
-0.677,0.528,0.408,23.24,35.77,-53.83,-0.071,-0.496,-1.035
-0.657,0.553,0.395,33.18,32.69,-48.58,-0.059,-0.501,-1.053
-0.655,0.526,0.382,38.29,27.65,-45.36,-0.055,-0.504,-1.058
-0.685,0.523,0.382,36.47,22.4,-43.61,-0.052,-0.508,-1.066
-0.708,0.519,0.381,31.08,16.45,-43.82,-0.042,-0.509,-1.067
-0.71,0.533,0.392,28.14,12.39,-39.2,-0.041,-0.508,-1.067
-0.681,0.556,0.419,28.7,7.77,-34.58,-0.038,-0.506,-1.069
-0.681,0.575,0.398,32.27,-15.75,-31.01,-0.033,-0.514,-1.073
-0.81,0.546,0.386,36.75,-7.35,-28.0,-0.035,-0.513,-1.079
-0.872,0.495,0.42,31.15,-3.78,-24.15,-0.025,-0.52,-1.081
-0.817,0.458,0.467,17.64,-0.56,-19.74,-0.026,-0.515,-1.09
-0.731,0.482,0.461,3.64,-2.24,-18.97,-0.02,-0.517,-1.088
-0.715,0.508,0.469,-1.05,-8.12,-20.16,-0.019,-0.521,-1.085
-0.756,0.539,0.496,3.71,-11.76,-19.39,-0.02,-0.517,-1.087
-0.787,0.511,0.548,11.34,-6.51,-16.59,-0.014,-0.522,-1.089
-0.714,0.465,0.504,6.37,-4.69,-14.21,-0.012,-0.524,-1.088
-0.655,0.481,0.489,-5.04,-1.4,-13.93,-0.01,-0.522,-1.09
-0.583,0.526,0.486,-11.27,4.27,-14.56,-0.004,-0.522,-1.086
-0.536,0.578,0.486,-6.72,5.6,-12.6,-0.004,-0.525,-1.089
-0.55,0.586,0.456,4.06,-0.56,-9.45,-0.007,-0.523,-1.083
-0.636,0.529,0.438,11.9,-11.83,1.26,-0.005,-0.526,-1.079
-0.762,0.494,0.448,2.38,-10.71,8.61,-0.007,-0.523,-1.084
-0.774,0.518,0.5,-10.01,-6.86,13.09,-0.01,-0.524,-1.081
-0.748,0.579,0.535,-18.27,-6.79,15.82,-0.011,-0.522,-1.078
-0.722,0.619,0.547,-17.01,-12.11,16.52,-0.014,-0.523,-1.074
-0.704,0.661,0.512,-11.13,-15.96,15.54,-0.013,-0.522,-1.071
-0.69,0.665,0.486,-2.66,-18.27,12.95,-0.017,-0.519,-1.073
-0.704,0.608,0.549,10.36,-18.83,9.38,-0.023,-0.524,-1.076
-0.688,0.549,0.556,8.26,-18.13,6.02,-0.022,-0.52,-1.072
-0.69,0.53,0.505,-3.64,-19.18,6.02,-0.022,-0.522,-1.07
-0.727,0.541,0.425,-20.09,-18.27,6.3,-0.025,-0.519,-1.072
-0.789,0.627,0.387,-32.76,-12.88,6.93,-0.027,-0.519,-1.06
-0.847,0.715,0.427,-30.66,-4.13,4.41,-0.032,-0.521,-1.059
-0.862,0.708,0.501,-15.26,-1.12,6.51,-0.026,-0.521,-1.054
-0.831,0.675,0.548,-1.33,-8.19,9.8,-0.03,-0.518,-1.058
-0.818,0.647,0.539,5.46,-21.49,3.78,-0.027,-0.516,-1.057
-0.815,0.614,0.584,8.75,-16.94,0.0,-0.034,-0.521,-1.062
-0.768,0.593,0.59,9.24,-10.15,-4.55,-0.031,-0.52,-1.06
-0.758,0.591,0.585,9.03,-7.14,-9.59,-0.03,-0.518,-1.053
-0.782,0.591,0.612,12.67,-5.74,-11.2,-0.031,-0.521,-1.055
-0.789,0.565,0.601,19.04,-4.76,-7.21,-0.029,-0.52,-1.058
-0.759,0.505,0.611,20.65,-3.78,-2.94,-0.029,-0.517,-1.057
-0.713,0.475,0.643,14.07,1.75,-0.42,-0.026,-0.52,-1.06
-0.7,0.528,0.66,3.43,4.62,-2.59,-0.028,-0.521,-1.057
-0.729,0.591,0.66,0.98,5.67,-3.64,-0.024,-0.519,-1.061
-0.733,0.601,0.617,8.12,8.33,2.73,-0.032,-0.515,-1.06
-0.727,0.581,0.553,17.36,10.92,6.44,-0.03,-0.521,-1.063
-0.742,0.583,0.53,15.47,10.43,6.58,-0.022,-0.521,-1.069
-0.734,0.609,0.569,14.63,11.48,7.14,-0.028,-0.52,-1.075
-0.679,0.607,0.568,15.47,12.88,6.16,-0.028,-0.519,-1.068
-0.655,0.604,0.538,15.82,8.26,2.87,-0.025,-0.521,-1.078
-0.718,0.607,0.478,14.49,4.83,-0.7,-0.021,-0.521,-1.074
-0.799,0.591,0.41,10.43,7.84,-0.14,-0.024,-0.519,-1.079
-0.814,0.564,0.356,-5.81,21.42,2.1,-0.029,-0.52,-1.079
-0.75,0.592,0.414,-20.02,27.09,0.84,-0.027,-0.517,-1.08
-0.648,0.633,0.458,-24.22,20.79,-2.66,-0.017,-0.525,-1.077
-0.616,0.67,0.433,-15.96,6.86,-3.5,-0.021,-0.52,-1.075
-0.632,0.633,0.414,-3.01,-4.13,-4.76,-0.023,-0.521,-1.071
-0.665,0.585,0.414,6.72,-5.25,-4.9,-0.022,-0.522,-1.074
-0.699,0.56,0.456,7.63,-0.21,-5.53,-0.024,-0.52,-1.073
-0.662,0.543,0.459,0.56,4.83,-8.05,-0.018,-0.522,-1.078
-0.6,0.55,0.468,-6.02,4.97,-7.84,-0.02,-0.524,-1.076
-0.541,0.557,0.504,-5.81,-1.61,-8.47,-0.021,-0.523,-1.08
-0.547,0.527,0.515,-0.77,-7.0,-7.35,-0.022,-0.525,-1.081
-0.608,0.499,0.483,0.56,-10.01,-5.25,-0.019,-0.523,-1.076
-0.676,0.486,0.471,-5.25,-6.86,-5.25,-0.021,-0.527,-1.074
-0.695,0.498,0.492,-15.33,4.76,-3.85,-0.022,-0.526,-1.075
-0.643,0.54,0.504,-24.43,8.54,-2.24,-0.024,-0.525,-1.069
-0.634,0.581,0.5,-25.76,1.19,-2.52,-0.017,-0.528,-1.065
-0.649,0.589,0.518,-19.32,-6.23,-0.63,-0.017,-0.529,-1.063
-0.603,0.613,0.488,-5.46,-4.62,0.35,-0.018,-0.526,-1.063
-0.602,0.588,0.482,2.94,-5.88,0.49,-0.018,-0.531,-1.064
-0.647,0.558,0.493,6.23,-7.21,1.33,-0.015,-0.53,-1.06
-0.686,0.536,0.501,-0.42,-6.37,1.75,-0.024,-0.527,-1.064
-0.7,0.55,0.485,-9.38,-4.48,4.34,-0.017,-0.526,-1.064
-0.695,0.568,0.459,-18.76,-4.34,7.7,-0.021,-0.526,-1.059
-0.663,0.601,0.477,-28.35,-3.22,8.68,-0.022,-0.525,-1.056
-0.621,0.634,0.52,-27.44,-4.27,8.82,-0.021,-0.528,-1.053
-0.616,0.669,0.552,-16.87,-8.19,8.61,-0.022,-0.527,-1.048
-0.655,0.649,0.502,-3.99,-12.18,7.77,-0.025,-0.53,-1.049
-0.72,0.613,0.433,1.12,-11.83,10.5,-0.029,-0.526,-1.045
-0.762,0.572,0.412,-5.46,-1.4,13.23,-0.027,-0.526,-1.041
-0.693,0.575,0.417,-24.43,7.28,12.74,-0.033,-0.526,-1.047
-0.613,0.649,0.446,-38.43,4.34,7.28,-0.036,-0.528,-1.035
-0.6,0.748,0.498,-25.9,-6.02,4.55,-0.031,-0.528,-1.037
-0.641,0.711,0.493,-6.02,-16.38,4.34,-0.033,-0.527,-1.031
-0.685,0.64,0.455,6.79,-19.53,7.49,-0.032,-0.522,-1.033
-0.748,0.587,0.455,5.81,-11.06,7.56,-0.035,-0.523,-1.035
-0.8,0.562,0.494,-5.95,9.52,8.4,-0.036,-0.525,-1.038
-0.673,0.612,0.453,-27.3,26.88,17.22,-0.037,-0.525,-1.036
-0.544,0.557,0.313,-32.27,7.98,5.46,-0.03,-0.523,-1.028
-0.65,0.527,0.258,-38.29,-17.64,-1.96,-0.036,-0.527,-1.02
-0.926,0.61,0.309,-48.44,-22.4,0.21,-0.039,-0.525,-1.012
-1.07,0.644,0.385,-52.78,12.88,10.22,-0.039,-0.532,-1.016
-0.845,0.678,0.342,-47.53,45.01,50.61,-0.042,-0.525,-1.004
-0.631,0.654,0.272,-37.17,19.6,25.27,-0.044,-0.528,-1.002
-0.662,0.665,0.196,-37.52,-28.63,12.53,-0.045,-0.519,-0.998
-0.922,0.745,0.311,-24.57,-54.74,8.96,-0.051,-0.521,-0.989
-1.074,0.656,0.301,-9.03,-20.93,12.04,-0.048,-0.517,-0.983
-0.875,0.524,0.321,-15.68,4.9,27.65,-0.049,-0.52,-0.986
-0.717,0.5,0.329,-43.54,5.11,27.3,-0.056,-0.516,-0.984
-0.764,0.592,0.33,-76.58,-10.15,16.66,-0.054,-0.513,-0.972
-0.894,0.768,0.315,-85.89,-18.97,11.83,-0.061,-0.515,-0.96
-0.965,0.83,0.292,-46.55,-13.86,17.22,-0.061,-0.507,-0.959
-0.951,0.77,0.27,-18.69,-16.59,23.31,-0.064,-0.511,-0.951
-0.957,0.705,0.29,-10.78,-16.52,22.26,-0.068,-0.509,-0.951
-0.957,0.675,0.33,-17.78,-15.19,16.03,-0.07,-0.506,-0.945
-0.91,0.695,0.335,-20.93,-12.6,11.34,-0.071,-0.504,-0.942
-0.869,0.649,0.309,-12.53,-21.07,5.04,-0.068,-0.501,-0.935
-0.937,0.561,0.3,-21.98,-21.56,8.47,-0.072,-0.504,-0.934
-1.029,0.503,0.27,-47.95,-8.68,14.91,-0.069,-0.501,-0.929
-1.004,0.635,0.218,-76.93,3.85,14.63,-0.073,-0.498,-0.921
-0.979,0.748,0.246,-79.1,9.73,13.93,-0.076,-0.49,-0.911
-0.92,0.769,0.224,-54.11,3.5,16.45,-0.08,-0.492,-0.904
-0.917,0.687,0.2,-29.26,-7.28,16.73,-0.073,-0.487,-0.904
-0.966,0.56,0.196,-25.06,-10.43,19.39,-0.085,-0.486,-0.9
-0.978,0.539,0.195,-42.28,-3.15,21.63,-0.084,-0.483,-0.898
-0.953,0.624,0.189,-59.57,6.09,13.58,-0.088,-0.48,-0.892
-0.919,0.65,0.242,-38.78,6.86,19.04,-0.086,-0.481,-0.886
-0.909,0.555,0.195,-20.79,-2.52,26.67,-0.087,-0.474,-0.885
-0.956,0.454,0.161,-26.39,-2.45,36.75,-0.091,-0.469,-0.881
-0.946,0.477,0.086,-51.87,9.03,43.26,-0.098,-0.466,-0.881
-0.885,0.532,0.169,-73.22,17.71,40.81,-0.105,-0.461,-0.869
-0.814,0.581,0.214,-68.81,17.22,44.31,-0.111,-0.453,-0.869
-0.804,0.582,0.097,-42.35,4.41,52.22,-0.111,-0.445,-0.86
-0.899,0.523,0.048,-39.41,-2.31,60.55,-0.125,-0.44,-0.86
-0.968,0.58,0.069,-54.6,0.07,58.45,-0.122,-0.427,-0.855
-0.957,0.681,0.132,-61.95,5.95,48.51,-0.134,-0.417,-0.852
-0.885,0.721,0.187,-38.99,3.29,47.39,-0.132,-0.41,-0.844
-0.848,0.658,0.112,-4.2,-5.11,49.629,-0.136,-0.408,-0.845
-0.925,0.541,0.07,24.29,-7.56,59.919,-0.139,-0.402,-0.847
-0.927,0.436,0.084,14.56,2.45,62.58,-0.147,-0.399,-0.845
-0.83,0.433,0.139,-3.85,11.13,57.12,-0.153,-0.387,-0.845
-0.737,0.462,0.152,-11.48,12.88,51.169,-0.156,-0.382,-0.852
-0.691,0.488,0.129,-5.53,5.6,50.19,-0.157,-0.379,-0.846
-0.706,0.467,0.121,8.26,-3.71,49.629,-0.161,-0.374,-0.845
-0.77,0.409,0.156,20.79,-8.89,48.02,-0.165,-0.366,-0.852
-0.818,0.352,0.145,17.71,-9.31,42.63,-0.168,-0.368,-0.846
-0.803,0.372,0.116,9.1,-4.97,41.65,-0.171,-0.365,-0.851
-0.767,0.403,0.081,3.15,-3.71,42.21,-0.172,-0.359,-0.854
-0.737,0.41,0.067,0.49,-4.48,41.02,-0.176,-0.358,-0.851
-0.731,0.398,0.127,2.1,-3.78,36.75,-0.181,-0.35,-0.848
-0.724,0.398,0.101,7.84,-1.75,27.93,-0.185,-0.341,-0.849
-0.701,0.406,0.075,13.16,-1.12,21.56,-0.18,-0.345,-0.849
-0.7,0.41,0.044,21.0,-0.28,15.96,-0.183,-0.342,-0.846
-0.707,0.412,0.038,27.51,1.61,11.62,-0.185,-0.344,-0.849
-0.703,0.414,0.066,36.05,2.94,5.11,-0.186,-0.341,-0.858
-0.695,0.423,0.079,51.379,2.87,-0.56,-0.18,-0.346,-0.852
-0.696,0.414,0.061,70.84,-2.73,-4.06,-0.185,-0.345,-0.863
-0.721,0.366,0.054,92.26,-9.31,-3.43,-0.185,-0.356,-0.864
-0.753,0.29,0.062,93.31,-11.06,-3.43,-0.18,-0.358,-0.869
-0.769,0.276,0.075,86.59,-10.01,-4.76,-0.182,-0.364,-0.875
-0.799,0.277,0.093,80.08,-9.17,-6.23,-0.181,-0.367,-0.88
-0.827,0.273,0.099,77.629,-8.89,-4.48,-0.181,-0.368,-0.882
-0.836,0.244,0.095,74.83,-8.54,0.63,-0.178,-0.372,-0.884
-0.819,0.205,0.08,55.929,-6.09,8.19,-0.178,-0.371,-0.889
-0.813,0.173,0.092,33.53,-3.78,10.85,-0.18,-0.373,-0.894
-0.82,0.201,0.112,9.45,-2.94,12.39,-0.18,-0.373,-0.898
-0.839,0.257,0.118,-6.09,-4.34,14.28,-0.179,-0.373,-0.893
-0.859,0.294,0.108,-10.22,-6.37,19.32,-0.178,-0.37,-0.892
-0.885,0.313,0.113,-8.54,-7.28,25.62,-0.185,-0.363,-0.895
-0.896,0.309,0.114,-8.33,-6.86,29.75,-0.181,-0.36,-0.889
-0.904,0.317,0.113,-14.7,-6.3,29.47,-0.186,-0.36,-0.884
-0.922,0.335,0.12,-19.74,-7.21,26.88,-0.188,-0.346,-0.884
-0.95,0.359,0.135,-22.54,-7.49,24.71,-0.189,-0.345,-0.881
-0.981,0.38,0.144,-21.63,-8.61,22.4,-0.188,-0.343,-0.885
-1.004,0.386,0.151,-18.41,-8.47,21.0,-0.191,-0.333,-0.886
-1.011,0.38,0.152,-16.45,-7.21,18.83,-0.19,-0.336,-0.877
-0.995,0.387,0.163,-17.43,-5.46,13.93,-0.196,-0.334,-0.88
-0.972,0.398,0.2,-14.07,-2.8,3.78,-0.193,-0.332,-0.877
-0.936,0.377,0.194,-8.96,-1.75,-2.59,-0.194,-0.331,-0.875
-0.917,0.349,0.189,-5.67,-0.14,-7.14,-0.187,-0.333,-0.871
-0.912,0.319,0.189,-5.6,4.13,-12.67,-0.187,-0.332,-0.874
-0.916,0.302,0.189,-8.19,7.84,-17.57,-0.194,-0.336,-0.868
-0.944,0.297,0.188,-11.76,10.78,-21.56,-0.191,-0.338,-0.872
-0.965,0.291,0.184,-14.0,13.3,-22.89,-0.184,-0.34,-0.878
-0.968,0.301,0.174,-13.72,14.28,-21.91,-0.183,-0.342,-0.88
-0.967,0.31,0.173,-10.08,14.0,-20.09,-0.187,-0.342,-0.884
-0.963,0.307,0.171,-2.59,11.27,-16.73,-0.185,-0.344,-0.877
-0.958,0.3,0.162,1.26,9.17,-15.4,-0.184,-0.347,-0.876
-0.978,0.282,0.156,2.87,7.21,-14.84,-0.187,-0.35,-0.879
-0.985,0.279,0.152,2.94,7.21,-13.51,-0.187,-0.352,-0.882
-0.97,0.275,0.146,1.96,9.31,-12.88,-0.182,-0.352,-0.883
-0.965,0.276,0.143,-0.21,9.8,-12.81,-0.187,-0.35,-0.893
-0.969,0.285,0.136,-1.82,8.33,-14.07,-0.179,-0.357,-0.887
-0.958,0.295,0.127,0.07,8.89,-13.72,-0.183,-0.354,-0.888
-0.921,0.294,0.122,4.62,8.05,-12.46,-0.179,-0.358,-0.89
-0.918,0.278,0.125,8.96,5.53,-11.27,-0.179,-0.358,-0.893
-0.921,0.261,0.125,10.01,3.15,-9.66,-0.179,-0.357,-0.891
-0.925,0.256,0.12,8.19,2.52,-7.7,-0.178,-0.363,-0.891
-0.931,0.258,0.122,5.46,2.38,-6.58,-0.176,-0.364,-0.893
-0.937,0.263,0.122,2.45,2.52,-5.25,-0.181,-0.365,-0.891
-0.932,0.267,0.115,0.77,2.8,-4.55,-0.174,-0.368,-0.897
-0.931,0.271,0.107,-0.7,2.59,-4.34,-0.178,-0.37,-0.897
-0.937,0.273,0.108,-1.05,1.12,-3.36,-0.177,-0.368,-0.887
-0.941,0.274,0.11,-0.49,0.07,-2.31,-0.176,-0.368,-0.891
-0.945,0.27,0.122,0.14,-1.26,-0.77,-0.179,-0.368,-0.886
-0.943,0.261,0.121,0.07,-2.59,1.19,-0.171,-0.368,-0.895
-0.95,0.261,0.125,-1.26,-4.06,3.01,-0.178,-0.366,-0.896
-0.955,0.267,0.13,-3.64,-3.85,5.6,-0.173,-0.363,-0.896
-0.946,0.282,0.135,-4.69,-4.76,7.7,-0.175,-0.367,-0.886
-0.954,0.287,0.144,-4.13,-5.74,8.82,-0.175,-0.365,-0.889
-0.955,0.292,0.148,-3.36,-6.3,9.8,-0.173,-0.364,-0.893
-0.961,0.294,0.143,-3.01,-6.37,10.01,-0.175,-0.357,-0.891
-0.96,0.293,0.141,-3.5,-6.23,9.87,-0.181,-0.36,-0.891
-0.944,0.3,0.149,-4.76,-4.62,9.03,-0.18,-0.36,-0.884
-0.913,0.307,0.146,-3.92,-5.18,7.7,-0.179,-0.357,-0.889
-0.923,0.305,0.146,-2.1,-6.16,6.93,-0.175,-0.354,-0.882
-0.939,0.298,0.142,-1.12,-6.02,7.0,-0.175,-0.354,-0.881
-0.946,0.293,0.138,-1.54,-5.46,7.56,-0.174,-0.353,-0.882
-0.956,0.293,0.133,-2.45,-5.6,7.98,-0.182,-0.351,-0.884
-0.964,0.296,0.13,-4.2,-5.88,9.45,-0.178,-0.352,-0.883
-0.964,0.31,0.129,-6.16,-6.02,9.94,-0.178,-0.35,-0.88
-0.963,0.323,0.126,-6.79,-6.72,9.94,-0.178,-0.35,-0.876
-0.968,0.332,0.126,-5.32,-6.79,9.8,-0.177,-0.343,-0.876
-0.964,0.332,0.121,-4.83,-6.37,8.82,-0.178,-0.345,-0.875
-0.957,0.335,0.121,-4.62,-6.37,7.49,-0.181,-0.343,-0.872
-0.952,0.339,0.123,-4.06,-6.51,6.72,-0.185,-0.347,-0.87
-0.946,0.344,0.121,-3.15,-7.07,6.23,-0.184,-0.348,-0.868
-0.949,0.349,0.123,-1.68,-7.28,6.23,-0.183,-0.344,-0.87
-0.942,0.352,0.127,0.49,-7.42,6.44,-0.183,-0.344,-0.872
-0.928,0.351,0.123,2.8,-7.63,6.3,-0.182,-0.337,-0.865
-0.927,0.356,0.128,5.18,-8.12,5.39,-0.186,-0.338,-0.87
-0.931,0.353,0.129,7.91,-7.91,4.27,-0.182,-0.339,-0.87
-0.952,0.356,0.131,8.89,-7.42,2.66,-0.18,-0.339,-0.865
-0.969,0.353,0.131,9.45,-6.65,1.12,-0.179,-0.341,-0.876
-0.988,0.352,0.133,8.89,-5.67,-0.42,-0.182,-0.34,-0.868
-0.993,0.347,0.131,7.98,-4.13,-3.15,-0.183,-0.343,-0.868
-0.987,0.346,0.124,5.53,-1.96,-5.53,-0.178,-0.346,-0.868
-0.981,0.348,0.122,4.13,1.68,-10.99,-0.178,-0.347,-0.872
-0.973,0.335,0.122,4.76,2.94,-14.14,-0.182,-0.351,-0.864
-0.97,0.322,0.115,4.9,3.29,-16.17,-0.179,-0.351,-0.872
-0.976,0.314,0.111,3.99,4.41,-18.83,-0.175,-0.353,-0.871
-0.985,0.302,0.108,2.59,6.16,-20.79,-0.179,-0.354,-0.877
-0.983,0.296,0.103,0.56,7.35,-21.28,-0.175,-0.358,-0.878
-0.98,0.292,0.095,-1.47,8.54,-21.91,-0.171,-0.363,-0.876
-0.969,0.292,0.085,-2.24,8.96,-21.21,-0.175,-0.365,-0.875
-0.943,0.291,0.082,-1.19,8.26,-19.67,-0.171,-0.367,-0.873
-0.927,0.288,0.086,0.63,7.14,-17.85,-0.169,-0.368,-0.874
-0.928,0.282,0.09,2.66,4.41,-15.82,-0.173,-0.367,-0.875
-0.936,0.272,0.088,4.41,2.45,-13.02,-0.173,-0.371,-0.875
-0.938,0.266,0.089,4.83,1.96,-9.52,-0.17,-0.372,-0.879
-0.928,0.264,0.086,4.55,1.68,-6.23,-0.17,-0.377,-0.877
-0.926,0.267,0.086,3.64,0.07,-4.62,-0.17,-0.375,-0.877
-0.937,0.272,0.085,2.1,-1.47,-2.66,-0.168,-0.377,-0.88
-0.953,0.29,0.087,1.19,-3.15,0.35,-0.167,-0.382,-0.869
-0.961,0.295,0.088,2.8,-4.13,2.45,-0.167,-0.375,-0.874
-0.974,0.295,0.094,3.99,-4.83,4.69,-0.166,-0.375,-0.873
-0.981,0.29,0.102,3.85,-5.11,6.37,-0.168,-0.375,-0.873
-0.981,0.294,0.106,1.75,-4.69,7.0,-0.167,-0.37,-0.874
-0.977,0.301,0.11,0.14,-4.34,6.79,-0.169,-0.37,-0.874
-0.966,0.306,0.114,-0.7,-3.36,6.79,-0.166,-0.372,-0.877
-0.95,0.308,0.114,-0.77,-2.31,5.95,-0.168,-0.372,-0.876
-0.942,0.31,0.112,-0.28,-1.89,5.32,-0.168,-0.373,-0.871
-0.937,0.307,0.109,0.7,-1.33,5.32,-0.17,-0.371,-0.873
-0.934,0.302,0.104,1.33,-1.47,5.88,-0.166,-0.371,-0.88
-0.93,0.301,0.098,0.77,-1.75,7.28,-0.175,-0.372,-0.878
-0.928,0.305,0.094,-0.14,-2.1,8.75,-0.172,-0.37,-0.877
-0.927,0.315,0.093,-0.7,-2.73,10.5,-0.167,-0.368,-0.872
-0.935,0.325,0.095,-0.28,-3.29,12.95,-0.17,-0.37,-0.873
-0.942,0.336,0.093,0.91,-5.32,14.42,-0.174,-0.368,-0.872
-0.943,0.345,0.094,1.68,-5.88,14.63,-0.175,-0.367,-0.881
-0.939,0.355,0.092,3.01,-5.67,13.93,-0.174,-0.361,-0.877
-0.934,0.356,0.096,4.55,-5.95,12.18,-0.173,-0.36,-0.872
-0.936,0.353,0.097,4.9,-5.6,9.31,-0.173,-0.364,-0.87
-0.937,0.357,0.098,4.2,-5.04,6.02,-0.176,-0.358,-0.871
-0.95,0.362,0.098,3.92,-4.55,2.38,-0.175,-0.357,-0.869
-0.957,0.352,0.09,4.83,-3.15,-1.96,-0.175,-0.361,-0.87
-0.936,0.343,0.086,5.46,-1.12,-4.06,-0.176,-0.36,-0.87
-0.926,0.329,0.076,4.55,-1.26,-6.09,-0.169,-0.358,-0.867
-0.946,0.329,0.071,3.01,-2.94,-7.98,-0.176,-0.357,-0.873
-0.959,0.33,0.066,3.08,-2.8,-8.4,-0.174,-0.358,-0.873
-0.957,0.326,0.066,6.37,-3.15,-5.6,-0.173,-0.364,-0.869
-0.962,0.311,0.076,9.38,-5.95,-2.87,-0.175,-0.363,-0.871
-0.975,0.304,0.082,8.82,-8.89,0.42,-0.171,-0.362,-0.868
-0.978,0.313,0.086,5.88,-10.43,2.59,-0.17,-0.362,-0.872
-0.942,0.347,0.107,5.74,-8.82,2.87,-0.17,-0.361,-0.863
-0.939,0.351,0.116,10.08,-8.12,2.94,-0.168,-0.367,-0.866
-0.935,0.339,0.117,13.44,-8.61,1.61,-0.169,-0.364,-0.87
-0.961,0.323,0.123,13.65,-8.4,-1.26,-0.163,-0.369,-0.871
-0.98,0.315,0.124,10.57,-5.67,-3.57,-0.173,-0.363,-0.876
-0.977,0.31,0.121,6.44,-2.59,-5.18,-0.168,-0.367,-0.869
