ax,ay,az,gx,gy,gz,mx,my,mz
-0.906,0.396,0.224,0.0,-3.29,0.63,-0.161,-0.399,-0.95
-0.905,0.391,0.223,0.21,-3.64,0.42,-0.163,-0.4,-0.954
-0.902,0.389,0.222,0.0,-3.78,0.21,-0.162,-0.398,-0.95
-0.898,0.387,0.221,-0.77,-3.85,0.07,-0.161,-0.397,-0.958
-0.895,0.386,0.217,-0.7,-4.2,-0.21,-0.159,-0.398,-0.954
-0.903,0.403,0.218,-1.19,-4.69,-0.49,-0.164,-0.398,-0.958
-0.921,0.411,0.243,-2.66,-6.72,-1.05,-0.164,-0.395,-0.95
-0.936,0.432,0.267,-4.13,-8.4,-1.54,-0.164,-0.396,-0.955
-0.936,0.444,0.276,-5.11,-7.91,-3.29,-0.164,-0.397,-0.952
-0.93,0.449,0.278,-4.62,-7.42,-4.13,-0.164,-0.398,-0.949
-0.911,0.449,0.285,-1.68,-5.53,-4.69,-0.167,-0.398,-0.949
-0.872,0.415,0.269,2.45,-2.87,-6.44,-0.16,-0.399,-0.953
-0.868,0.395,0.315,3.92,-3.15,-7.14,-0.162,-0.4,-0.949
-0.878,0.382,0.365,-1.47,-1.68,-8.4,-0.161,-0.402,-0.953
-0.879,0.388,0.37,-14.21,1.12,-10.78,-0.163,-0.402,-0.946
-0.866,0.415,0.369,-29.68,3.92,-13.09,-0.163,-0.399,-0.941
-0.855,0.468,0.403,-50.61,4.97,-15.47,-0.161,-0.402,-0.943
-0.853,0.585,0.453,-85.75,11.9,-27.23,-0.153,-0.4,-0.933
-0.8,0.802,0.439,-71.19,20.65,-36.47,-0.154,-0.406,-0.935
-0.725,0.863,0.363,-58.24,25.83,-44.8,-0.15,-0.409,-0.927
-0.666,0.897,0.306,-39.69,22.05,-54.04,-0.15,-0.411,-0.926
-0.654,0.924,0.326,-20.93,15.96,-62.93,-0.141,-0.415,-0.926
-0.648,0.92,0.335,-5.53,15.4,-72.03,-0.138,-0.429,-0.928
-0.619,0.887,0.329,3.85,17.43,-81.34,-0.13,-0.435,-0.934
-0.584,0.875,0.314,3.85,19.67,-90.3,-0.124,-0.445,-0.935
-0.569,0.903,0.329,-5.46,22.54,-112.56,-0.109,-0.455,-0.949
-0.544,0.938,0.298,-7.0,27.23,-129.71,-0.107,-0.466,-0.943
-0.515,0.909,0.269,-2.24,29.75,-144.34,-0.078,-0.483,-0.945
-0.487,0.874,0.21,1.12,29.96,-155.47,-0.075,-0.495,-0.939
-0.482,0.875,0.186,0.91,27.16,-165.06,-0.059,-0.505,-0.948
-0.52,0.971,0.21,-2.45,24.15,-175.14,-0.027,-0.524,-0.951
-0.576,1.067,0.268,6.44,27.51,-186.27,-0.008,-0.529,-0.95
-0.592,0.98,0.178,30.59,34.79,-196.42,0.024,-0.553,-0.958
-0.535,0.865,0.098,36.68,37.24,-202.79,0.042,-0.552,-0.963
-0.524,0.759,0.076,29.33,35.42,-207.41,0.059,-0.562,-0.961
-0.537,0.75,0.119,13.16,33.04,-206.78,0.1,-0.573,-0.967
-0.554,0.831,0.143,-5.53,33.04,-208.18,0.12,-0.574,-0.963
-0.544,0.855,0.166,-12.39,33.53,-210.91,0.161,-0.579,-0.969
-0.506,0.867,0.164,-13.93,32.48,-209.37,0.177,-0.579,-0.965
-0.487,0.865,0.137,-16.52,24.85,-207.2,0.2,-0.582,-0.965
-0.443,0.836,0.135,-14.0,22.26,-201.81,0.239,-0.578,-0.967
-0.412,0.904,0.1,-12.25,18.76,-194.321,0.258,-0.575,-0.96
-0.411,0.92,0.113,-9.38,10.01,-187.11,0.293,-0.571,-0.957
-0.39,0.875,0.193,-2.66,7.35,-176.47,0.31,-0.564,-0.961
-0.338,0.822,0.243,1.05,8.47,-166.67,0.326,-0.567,-0.962
-0.273,0.848,0.232,1.61,8.61,-157.71,0.35,-0.551,-0.961
-0.219,0.9,0.17,-1.12,6.86,-150.36,0.369,-0.551,-0.962
-0.158,0.863,0.157,3.57,-0.84,-136.29,0.379,-0.543,-0.96
-0.011,0.762,0.204,5.32,-1.12,-124.95,0.394,-0.536,-0.957
0.105,0.709,0.252,0.56,-2.87,-111.58,0.41,-0.529,-0.96
0.193,0.717,0.299,-7.91,-5.67,-99.26,0.424,-0.516,-0.955
0.233,0.761,0.304,-20.44,-7.35,-90.65,0.434,-0.517,-0.958
0.25,0.792,0.306,-29.96,-10.5,-83.93,0.441,-0.504,-0.953
0.278,0.848,0.291,-33.46,-13.16,-78.05,0.451,-0.5,-0.953
0.321,0.83,0.203,-26.25,-20.58,-72.03,0.456,-0.494,-0.952
0.416,0.749,0.118,-30.66,-30.38,-66.08,0.462,-0.485,-0.949
0.477,0.693,0.09,-38.85,-40.88,-59.99,0.469,-0.489,-0.952
0.498,0.754,0.174,-41.23,-47.04,-54.6,0.468,-0.483,-0.951
0.437,0.881,0.289,-34.72,-47.46,-49.21,0.477,-0.473,-0.952
0.398,0.921,0.299,-21.7,-45.43,-45.43,0.483,-0.469,-0.957
0.424,0.784,0.218,-1.61,-42.77,-43.96,0.487,-0.466,-0.958
0.46,0.555,0.256,-0.07,-43.82,-33.18,0.492,-0.464,-0.964
0.336,0.703,0.429,-65.03,-41.23,-41.51,0.498,-0.457,-0.96
0.335,0.857,0.416,-99.68,-24.57,-43.82,0.501,-0.457,-0.956
0.387,0.809,0.236,-91.91,-14.21,-36.47,0.505,-0.456,-0.954
0.417,0.675,0.112,-67.76,-19.46,-30.73,0.504,-0.45,-0.945
0.437,0.56,0.024,-61.25,-25.41,-24.29,0.508,-0.448,-0.943
0.453,0.724,0.163,-82.6,-28.07,-18.41,0.506,-0.446,-0.942
0.441,0.918,0.275,-105.14,-21.98,-19.18,0.509,-0.442,-0.923
0.488,1.056,0.352,-96.11,-13.86,-17.57,0.513,-0.443,-0.926
0.579,1.018,0.348,-65.87,-7.91,-15.82,0.511,-0.437,-0.922
0.623,0.816,0.218,-27.09,-5.74,-13.58,0.513,-0.436,-0.923
0.59,0.798,0.212,-26.18,-6.3,-9.87,0.506,-0.434,-0.918
0.609,0.859,0.2,-31.57,-4.06,-9.45,0.512,-0.436,-0.908
0.666,0.903,0.172,-26.74,-0.56,-8.82,0.51,-0.437,-0.911
0.669,0.986,0.186,-11.48,-0.07,-6.44,0.515,-0.432,-0.902
0.624,0.925,0.194,0.07,-0.42,-9.31,0.514,-0.434,-0.902
0.619,0.886,0.183,2.66,0.98,-6.86,0.518,-0.432,-0.901
0.647,0.846,0.163,-3.5,4.06,-6.02,0.52,-0.431,-0.907
0.638,0.891,0.145,-8.47,3.22,-4.9,0.518,-0.431,-0.91
0.548,0.952,0.11,-10.71,3.5,-4.27,0.516,-0.428,-0.903
0.551,1.009,0.096,-8.19,5.46,-3.5,0.522,-0.429,-0.902
0.567,1.031,0.122,-3.99,7.07,-2.87,0.519,-0.426,-0.902
0.585,0.969,0.087,3.71,7.56,-2.73,0.518,-0.429,-0.901
0.617,0.905,0.098,10.43,7.35,-2.66,0.519,-0.429,-0.89
0.644,0.868,0.138,4.9,5.53,-1.26,0.518,-0.428,-0.897
0.635,0.902,0.149,-1.4,4.69,-1.54,0.515,-0.429,-0.898
0.63,0.961,0.107,-2.66,5.67,-3.36,0.513,-0.43,-0.897
0.644,0.933,0.038,4.48,3.43,-4.06,0.523,-0.427,-0.9
0.656,0.854,0.048,14.42,-0.63,-3.29,0.519,-0.428,-0.898
0.651,0.764,0.093,16.52,-3.36,-2.45,0.518,-0.428,-0.902
0.632,0.711,0.086,9.59,-3.78,-1.61,0.516,-0.426,-0.907
0.619,0.745,0.065,-5.32,-2.24,-3.64,0.516,-0.43,-0.906
0.62,0.818,0.059,-8.82,-2.24,-3.78,0.515,-0.433,-0.896
0.603,0.829,0.08,-4.48,-3.01,-4.62,0.519,-0.433,-0.891
0.58,0.797,0.104,3.08,-3.15,-4.9,0.526,-0.424,-0.896
0.564,0.751,0.085,8.68,-2.24,-5.18,0.523,-0.423,-0.899
0.572,0.723,0.08,9.45,-1.54,-5.25,0.522,-0.425,-0.899
0.588,0.73,0.093,10.5,-1.96,-2.73,0.524,-0.421,-0.903
0.568,0.786,0.104,17.92,-3.01,-0.91,0.517,-0.423,-0.903
0.575,0.796,0.087,24.78,-3.29,-1.4,0.521,-0.421,-0.904
0.607,0.776,0.101,27.16,-4.06,-1.89,0.521,-0.426,-0.914
0.601,0.728,0.151,29.54,-5.95,-1.12,0.519,-0.423,-0.908
0.575,0.687,0.168,33.53,-6.37,2.24,0.524,-0.426,-0.913
0.568,0.627,0.141,30.94,-6.58,0.49,0.52,-0.431,-0.912
0.562,0.627,0.095,4.97,-6.93,-3.22,0.521,-0.429,-0.916
0.59,0.727,0.083,-4.62,-6.65,-3.57,0.522,-0.426,-0.918
0.607,0.766,0.116,-2.8,-6.86,-3.08,0.519,-0.427,-0.917
0.589,0.756,0.164,3.22,-7.84,-0.63,0.518,-0.424,-0.918
0.579,0.719,0.166,5.11,-6.51,0.63,0.52,-0.425,-0.921
0.589,0.683,0.143,2.1,-4.34,1.54,0.524,-0.422,-0.918
0.602,0.691,0.137,-4.06,-4.27,2.8,0.521,-0.428,-0.918
0.603,0.706,0.151,-8.82,-5.53,3.64,0.521,-0.427,-0.921
0.616,0.781,0.18,-8.68,-5.67,4.83,0.521,-0.424,-0.913
0.62,0.819,0.188,-4.9,-5.74,4.69,0.522,-0.421,-0.917
0.614,0.814,0.191,1.96,-5.6,4.41,0.52,-0.425,-0.912
0.613,0.773,0.192,8.75,-5.88,4.55,0.52,-0.429,-0.914
0.607,0.744,0.172,8.96,-6.23,5.53,0.521,-0.429,-0.917
0.597,0.751,0.166,3.71,-6.58,6.51,0.52,-0.428,-0.924
0.583,0.792,0.16,0.21,-7.77,9.45,0.517,-0.433,-0.919
0.57,0.819,0.169,2.45,-8.61,9.52,0.513,-0.429,-0.919
0.582,0.812,0.168,6.23,-9.38,10.29,0.518,-0.428,-0.925
0.585,0.787,0.16,9.87,-9.94,10.92,0.518,-0.431,-0.926
0.586,0.786,0.155,8.05,-11.2,10.01,0.513,-0.434,-0.927
0.575,0.81,0.168,4.27,-10.92,7.84,0.512,-0.434,-0.926
0.566,0.841,0.17,2.38,-9.52,6.16,0.513,-0.44,-0.935
0.564,0.848,0.165,2.24,-7.84,3.15,0.515,-0.436,-0.938
0.575,0.835,0.155,3.43,-6.37,0.91,0.511,-0.434,-0.931
0.58,0.803,0.163,4.62,-6.65,-2.03,0.513,-0.436,-0.932
0.559,0.753,0.189,3.08,-6.51,-3.78,0.508,-0.435,-0.93
0.551,0.759,0.193,-0.49,-5.32,-4.48,0.513,-0.439,-0.934
0.542,0.785,0.194,-2.94,-3.78,-4.9,0.514,-0.438,-0.933
0.509,0.797,0.186,-1.12,-3.01,-4.83,0.516,-0.437,-0.931
0.5,0.776,0.166,2.73,-1.33,-4.06,0.513,-0.436,-0.925
0.527,0.733,0.144,3.85,0.28,-3.01,0.509,-0.438,-0.933
0.534,0.712,0.138,0.14,-0.28,-1.82,0.518,-0.435,-0.93
0.543,0.714,0.157,-5.95,-0.84,-0.56,0.516,-0.438,-0.93
0.549,0.758,0.149,-7.77,-0.98,0.28,0.519,-0.432,-0.929
0.489,0.809,0.103,-1.19,-2.45,-0.42,0.512,-0.43,-0.927
0.472,0.777,0.101,7.42,-2.87,-2.45,0.51,-0.432,-0.932
0.552,0.672,0.054,13.72,-1.19,-4.76,0.516,-0.436,-0.93
0.639,0.643,0.059,11.41,-1.54,-7.98,0.523,-0.431,-0.931
0.62,0.699,0.114,3.15,-0.21,-10.92,0.518,-0.431,-0.934
0.583,0.824,0.217,-5.18,6.93,-12.81,0.516,-0.428,-0.929
0.571,0.907,0.291,-8.47,22.68,-18.55,0.52,-0.43,-0.927
0.579,0.885,0.3,-8.68,29.19,-21.35,0.52,-0.425,-0.918
0.644,0.811,0.271,-8.47,30.94,-20.93,0.523,-0.419,-0.92
0.68,0.782,0.253,-7.0,26.11,-16.94,0.521,-0.422,-0.915
0.688,0.802,0.267,-5.11,18.69,-13.16,0.519,-0.418,-0.907
0.669,0.832,0.269,-3.85,10.22,-9.94,0.521,-0.421,-0.906
0.652,0.843,0.229,1.26,4.55,-7.56,0.526,-0.419,-0.906
0.652,0.801,0.16,11.69,-2.24,-3.71,0.525,-0.415,-0.91
0.648,0.745,0.106,22.4,-14.07,-0.63,0.522,-0.415,-0.914
0.635,0.687,0.119,22.75,-19.53,2.1,0.525,-0.418,-0.914
0.62,0.691,0.118,20.16,-17.85,2.59,0.526,-0.418,-0.923
0.605,0.699,0.13,14.7,-14.7,2.8,0.527,-0.418,-0.92
0.603,0.702,0.116,8.89,-11.41,2.73,0.522,-0.418,-0.925
0.612,0.698,0.104,5.95,-7.7,2.03,0.526,-0.417,-0.928
0.624,0.719,0.099,2.1,-7.0,1.12,0.522,-0.42,-0.925
0.622,0.738,0.105,-5.11,-8.4,-1.89,0.522,-0.42,-0.925
0.605,0.783,0.182,-5.04,-9.59,-3.36,0.525,-0.42,-0.923
0.588,0.799,0.208,-3.15,-8.05,-5.32,0.525,-0.417,-0.926
0.574,0.768,0.192,2.45,-6.02,-6.93,0.523,-0.416,-0.927
0.589,0.717,0.162,8.54,-5.04,-6.65,0.526,-0.417,-0.925
0.589,0.701,0.165,6.72,-5.81,-7.28,0.524,-0.417,-0.929
0.565,0.715,0.178,0.42,-5.95,-7.63,0.528,-0.413,-0.932
0.562,0.737,0.19,-3.01,-3.99,-7.7,0.524,-0.415,-0.931
0.573,0.742,0.189,-2.66,-3.15,-6.93,0.534,-0.412,-0.931
0.581,0.715,0.184,0.63,-2.87,-5.39,0.532,-0.415,-0.927
0.586,0.691,0.173,1.33,-2.8,-4.2,0.53,-0.411,-0.924
0.587,0.703,0.183,-3.08,-3.22,-3.15,0.53,-0.414,-0.924
0.603,0.735,0.191,-4.34,-3.64,-2.8,0.532,-0.412,-0.923
0.615,0.739,0.201,-2.03,-4.76,-2.66,0.532,-0.412,-0.922
0.603,0.743,0.205,0.84,-5.53,-2.52,0.532,-0.409,-0.928
0.599,0.732,0.197,3.43,-4.9,-1.82,0.53,-0.41,-0.93
0.636,0.711,0.188,5.32,-3.92,-0.7,0.534,-0.414,-0.926
0.641,0.714,0.197,3.78,-5.04,-0.84,0.534,-0.411,-0.93
0.629,0.739,0.212,1.26,-4.55,-1.12,0.534,-0.413,-0.927
0.613,0.757,0.197,0.98,-3.22,-1.82,0.529,-0.413,-0.927
0.597,0.747,0.188,4.9,-2.8,-0.77,0.531,-0.412,-0.928
0.608,0.724,0.188,6.51,-2.66,0.7,0.533,-0.413,-0.93
0.613,0.718,0.194,2.66,-2.52,1.33,0.532,-0.412,-0.932
0.612,0.733,0.195,-2.73,-1.89,1.4,0.534,-0.413,-0.933
0.614,0.764,0.197,-6.23,-1.33,1.4,0.533,-0.414,-0.936
0.619,0.785,0.187,-6.65,-0.28,1.47,0.53,-0.415,-0.926
0.63,0.788,0.187,-2.38,-1.19,1.75,0.533,-0.412,-0.931
0.639,0.759,0.213,1.82,-1.61,1.47,0.534,-0.41,-0.932
0.641,0.758,0.216,1.47,-1.61,1.26,0.535,-0.413,-0.925
0.636,0.76,0.204,0.63,-1.26,0.0,0.534,-0.409,-0.925
0.637,0.755,0.187,0.77,-1.05,-0.35,0.529,-0.412,-0.927
0.647,0.751,0.183,0.28,-1.4,-0.98,0.529,-0.41,-0.932
0.665,0.75,0.188,-1.12,-1.75,-1.68,0.529,-0.409,-0.933
0.662,0.763,0.193,-1.54,-2.31,-2.38,0.53,-0.415,-0.932
0.634,0.766,0.19,1.68,-3.43,-3.57,0.535,-0.411,-0.928
0.619,0.754,0.189,4.27,-3.64,-3.64,0.527,-0.41,-0.928
0.597,0.724,0.186,6.51,-3.78,-3.01,0.527,-0.411,-0.938
0.563,0.682,0.195,6.79,-3.29,-1.89,0.531,-0.414,-0.931
0.543,0.664,0.22,5.6,-0.7,2.17,0.53,-0.412,-0.931
0.586,0.68,0.234,2.87,5.18,10.08,0.529,-0.411,-0.926
0.668,0.734,0.21,-2.17,10.78,19.88,0.531,-0.418,-0.926
0.714,0.787,0.216,-5.25,8.54,32.13,0.529,-0.42,-0.931
0.716,0.866,0.311,-4.27,6.16,36.12,0.532,-0.422,-0.93
0.669,0.903,0.373,5.04,5.88,38.57,0.525,-0.423,-0.933
0.604,0.884,0.381,26.04,9.03,40.67,0.523,-0.431,-0.929
0.523,0.794,0.339,50.54,14.84,45.78,0.518,-0.438,-0.926
0.429,0.643,0.27,69.159,20.86,55.58,0.515,-0.44,-0.931
0.301,0.444,0.201,76.86,27.51,84.35,0.507,-0.449,-0.94
0.098,0.189,0.16,68.879,33.25,113.75,0.499,-0.457,-0.938
-0.008,0.114,0.12,46.69,43.61,146.86,0.493,-0.466,-0.944
-0.099,0.116,0.032,19.18,53.83,181.51,0.468,-0.485,-0.936
-0.195,0.145,-0.066,-3.36,55.37,222.67,0.454,-0.495,-0.935
-0.333,0.219,-0.209,-11.76,50.61,269.43,0.41,-0.528,-0.925
-0.499,0.319,-0.312,-14.07,32.97,310.1,0.389,-0.54,-0.923
-0.725,0.471,-0.425,-14.49,11.76,353.57,0.359,-0.553,-0.917
-1.153,0.597,-0.473,-13.02,-35.63,411.6,0.292,-0.576,-0.912
-1.587,0.608,-0.285,-5.6,-57.54,456.05,0.251,-0.583,-0.918
-2.162,0.67,-0.152,-3.5,-28.63,500.01,0.167,-0.581,-0.917
-2.4,0.69,-0.09,-32.41,3.36,520.03,0.112,-0.575,-0.915
-2.631,0.875,0.078,-66.92,-7.84,537.18,0.065,-0.562,-0.907
-3.068,1.112,0.186,-67.55,-31.71,550.13,-0.034,-0.511,-0.888
-3.348,1.446,0.384,-26.81,-92.75,535.22,-0.078,-0.479,-0.883
-3.002,2.567,0.824,50.19,-129.08,480.76,-0.147,-0.408,-0.867
-2.371,3.127,0.551,162.75,-126.42,392.14,-0.169,-0.381,-0.865
-1.491,2.474,-0.76,302.82,-54.32,278.04,-0.19,-0.36,-0.874
-0.991,0.974,-1.075,480.48,-91.28,164.92,-0.198,-0.34,-0.908
-0.964,-0.122,-0.496,524.3,-208.04,122.71,-0.199,-0.336,-0.91
-1.139,0.005,0.098,325.71,-194.39,18.83,-0.197,-0.339,-0.908
-1.238,-0.214,0.643,163.1,-130.9,-51.17,-0.193,-0.344,-0.907
-1.184,-0.067,0.768,51.03,-74.41,-41.51,-0.18,-0.351,-0.901
-0.91,0.109,0.7,-28.63,-37.38,-31.99,-0.176,-0.356,-0.9
-0.759,-0.319,0.929,-167.93,-12.53,-27.09,-0.174,-0.355,-0.894
-0.732,-0.068,0.866,-320.74,17.22,-5.6,-0.174,-0.343,-0.866
-0.543,0.318,0.628,-425.81,38.5,-28.0,-0.175,-0.338,-0.854
-0.457,0.605,0.498,-410.69,45.99,-35.49,-0.174,-0.315,-0.827
-0.4,0.731,0.34,-311.36,71.399,-11.97,-0.179,-0.305,-0.823
-0.283,0.661,0.076,-118.3,90.79,51.31,-0.185,-0.294,-0.824
-0.099,0.553,0.015,-28.98,84.28,64.679,-0.187,-0.274,-0.839
-0.075,0.432,-0.024,13.3,75.74,72.59,-0.191,-0.275,-0.836
-0.123,0.348,-0.005,26.81,64.05,85.399,-0.208,-0.264,-0.848
-0.225,0.294,0.043,18.27,54.53,99.75,-0.208,-0.259,-0.859
-0.363,0.288,0.07,-3.43,50.61,111.09,-0.213,-0.249,-0.861
-0.613,0.402,0.057,-51.45,48.79,123.62,-0.22,-0.227,-0.868
-0.81,0.573,0.017,-92.75,48.02,126.28,-0.224,-0.212,-0.868
-1.037,0.856,-0.024,-134.12,48.649,116.9,-0.228,-0.183,-0.882
-1.265,1.229,0.003,-164.43,50.679,88.129,-0.232,-0.169,-0.882
-1.471,1.606,0.082,-171.571,74.129,45.99,-0.241,-0.157,-0.891
-1.356,1.8,-0.04,-129.71,98.42,-32.69,-0.24,-0.154,-0.898
-1.083,1.593,-0.009,-38.85,57.47,-86.8,-0.239,-0.153,-0.902
-1.153,0.897,0.054,79.45,2.73,-131.11,-0.24,-0.176,-0.912
-1.275,0.614,0.087,149.03,-37.31,-172.13,-0.237,-0.193,-0.909
-1.317,0.469,0.1,163.31,-50.33,-201.25,-0.237,-0.216,-0.91
-1.327,0.447,0.07,154.0,-48.37,-215.39,-0.218,-0.26,-0.905
-1.38,0.458,0.072,135.59,-42.07,-227.85,-0.219,-0.278,-0.917
-1.461,0.545,0.285,98.0,-30.03,-239.96,-0.202,-0.324,-0.916
-1.539,0.578,0.281,64.679,-7.77,-254.8,-0.196,-0.35,-0.92
-1.552,0.559,0.177,27.37,16.59,-247.38,-0.179,-0.371,-0.926
-1.505,0.484,0.102,19.6,31.29,-238.7,-0.159,-0.409,-0.927
-1.427,0.419,0.071,24.01,42.77,-225.05,-0.141,-0.425,-0.928
-1.345,0.383,0.081,40.04,47.88,-208.46,-0.123,-0.44,-0.943
-1.287,0.36,0.12,60.76,45.64,-193.06,-0.096,-0.469,-0.949
-1.273,0.345,0.165,81.06,37.17,-181.93,-0.078,-0.484,-0.956
-1.297,0.321,0.201,98.98,29.05,-173.6,-0.06,-0.501,-0.982
-1.313,0.284,0.204,112.42,23.17,-165.06,-0.044,-0.51,-0.999
-1.282,0.245,0.195,122.5,17.36,-150.92,-0.015,-0.527,-1.01
-1.164,0.183,0.183,123.13,15.68,-141.47,-0.004,-0.532,-1.026
-1.067,0.139,0.176,121.31,15.4,-128.94,0.012,-0.535,-1.034
-0.965,0.091,0.172,116.41,16.31,-113.68,0.035,-0.535,-1.059
-0.861,0.037,0.176,105.77,17.57,-97.44,0.046,-0.539,-1.073
-0.767,-0.009,0.184,87.01,17.78,-80.64,0.063,-0.541,-1.081
-0.692,-0.032,0.187,60.55,17.71,-62.93,0.072,-0.543,-1.084
-0.649,0.002,0.173,19.53,16.17,-36.47,0.074,-0.538,-1.087
-0.623,0.04,0.156,-0.14,14.56,-21.07,0.083,-0.543,-1.092
-0.598,0.064,0.122,-12.81,11.76,-4.41,0.081,-0.545,-1.086
-0.594,0.082,0.106,-22.75,7.49,12.88,0.082,-0.55,-1.091
-0.6,0.105,0.095,-31.01,2.66,29.82,0.077,-0.545,-1.085
-0.61,0.131,0.09,-37.59,-2.66,46.83,0.074,-0.546,-1.086
-0.619,0.156,0.088,-41.37,-8.47,64.61,0.063,-0.547,-1.069
-0.635,0.176,0.094,-42.7,-16.52,82.81,0.059,-0.542,-1.068
-0.666,0.2,0.107,-43.54,-25.34,100.73,0.045,-0.539,-1.061
-0.745,0.242,0.126,-44.87,-38.99,126.56,0.027,-0.536,-1.051
-0.811,0.273,0.134,-44.31,-47.39,142.87,0.013,-0.534,-1.053
-0.884,0.304,0.14,-42.42,-55.3,158.83,-0.014,-0.517,-1.038
-0.968,0.344,0.146,-39.41,-63.35,173.67,-0.028,-0.509,-1.036
-1.061,0.391,0.157,-34.72,-70.21,186.48,-0.065,-0.49,-1.02
-1.158,0.442,0.173,-28.7,-75.6,200.13,-0.081,-0.48,-1.016
-1.248,0.5,0.197,-21.7,-80.57,204.12,-0.095,-0.466,-1.01
-1.318,0.597,0.239,-10.57,-81.83,204.12,-0.126,-0.441,-0.998
-1.379,0.657,0.266,-2.59,-79.8,195.65,-0.14,-0.424,-0.989
-1.379,0.7,0.285,6.72,-74.48,182.0,-0.166,-0.399,-0.98
-1.355,0.726,0.297,17.71,-67.83,165.2,-0.168,-0.384,-0.971
-1.31,0.71,0.295,28.63,-61.11,145.04,-0.176,-0.368,-0.97
-1.246,0.644,0.265,35.7,-55.86,123.97,-0.191,-0.351,-0.964
-1.186,0.533,0.24,35.21,-53.62,102.41,-0.196,-0.342,-0.963
-1.141,0.43,0.232,15.61,-53.34,73.22,-0.202,-0.33,-0.952
-1.111,0.359,0.256,-7.7,-50.68,55.23,-0.209,-0.326,-0.949
-1.099,0.366,0.291,-35.42,-44.24,40.74,-0.21,-0.32,-0.944
-1.061,0.391,0.324,-61.6,-33.39,31.5,-0.216,-0.312,-0.933
-1.0,0.427,0.333,-84.63,-21.63,25.48,-0.209,-0.304,-0.931
-0.936,0.485,0.325,-101.36,-11.34,21.49,-0.211,-0.303,-0.929
-0.878,0.542,0.31,-109.48,-4.55,17.85,-0.215,-0.298,-0.916
-0.83,0.594,0.288,-107.94,0.21,14.77,-0.215,-0.291,-0.908
-0.795,0.637,0.27,-96.25,2.73,12.18,-0.212,-0.258,-0.91
-0.779,0.67,0.26,-75.39,2.1,9.94,-0.211,-0.284,-0.905
-0.787,0.693,0.26,-34.09,-1.82,5.74,-0.216,-0.282,-0.905
-0.818,0.676,0.284,-7.14,-4.48,1.54,-0.213,-0.286,-0.91
-0.859,0.645,0.31,14.42,-6.23,-4.34,-0.216,-0.287,-0.906
-0.908,0.599,0.309,26.74,-5.74,-12.25,-0.215,-0.285,-0.903
-0.951,0.562,0.297,30.8,-3.08,-21.56,-0.215,-0.291,-0.903
-0.981,0.537,0.284,29.75,1.96,-32.06,-0.212,-0.293,-0.903
-0.999,0.519,0.277,27.09,7.07,-42.28,-0.213,-0.292,-0.902
-1.017,0.505,0.281,24.57,9.94,-52.92,-0.213,-0.305,-0.91
-1.034,0.495,0.281,22.47,12.81,-64.19,-0.207,-0.312,-0.918
-1.054,0.479,0.276,21.14,15.05,-75.6,-0.201,-0.327,-0.922
-1.077,0.468,0.291,27.72,17.78,-87.22,-0.197,-0.338,-0.919
-1.111,0.461,0.278,40.95,21.21,-88.55,-0.193,-0.344,-0.919
-1.145,0.481,0.218,77.56,23.31,-88.41,-0.186,-0.361,-0.934
-1.176,0.416,0.177,136.08,24.36,-87.36,-0.181,-0.366,-0.944
-1.163,0.148,0.246,166.04,30.1,-73.43,-0.174,-0.38,-0.964
-1.137,-0.013,0.251,146.09,36.19,-63.98,-0.17,-0.385,-0.979
-1.119,-0.035,0.294,81.129,46.76,-74.69,-0.167,-0.393,-0.989
-1.099,-0.046,0.277,10.57,58.87,-89.25,-0.156,-0.407,-0.998
-1.065,0.139,0.234,-68.74,60.27,-92.33,-0.15,-0.415,-0.999
-0.999,0.244,0.2,-99.75,59.36,-103.11,-0.135,-0.43,-0.993
-0.966,0.308,0.149,-108.22,56.0,-104.02,-0.126,-0.439,-0.986
-0.948,0.424,0.131,-98.56,48.929,-97.51,-0.112,-0.454,-0.982
-0.927,0.457,0.129,-73.92,42.84,-92.47,-0.105,-0.459,-0.981
-0.901,0.441,0.124,-41.72,37.03,-75.6,-0.099,-0.463,-0.984
-0.856,0.383,0.115,4.55,29.61,-64.33,-0.091,-0.476,-0.987
-0.828,0.319,0.113,27.65,24.43,-53.27,-0.083,-0.475,-0.993
-0.809,0.263,0.128,39.97,18.76,-42.63,-0.074,-0.483,-1.0
-0.794,0.232,0.141,42.14,13.93,-33.11,-0.072,-0.482,-1.0
-0.776,0.212,0.143,38.01,9.45,-24.08,-0.073,-0.489,-1.001
-0.76,0.196,0.137,30.17,4.06,-14.98,-0.072,-0.488,-1.014
-0.754,0.185,0.132,19.53,-1.05,-6.09,-0.066,-0.489,-1.011
-0.761,0.195,0.128,2.66,-6.93,6.93,-0.072,-0.488,-1.015
-0.785,0.241,0.13,-3.85,-10.57,16.1,-0.07,-0.485,-1.015
-0.798,0.265,0.135,-6.72,-13.93,25.62,-0.073,-0.486,-1.012
-0.807,0.28,0.142,-7.28,-17.64,34.93,-0.075,-0.482,-1.015
-0.818,0.29,0.147,-7.35,-21.98,44.1,-0.081,-0.481,-1.014
-0.833,0.302,0.155,-7.28,-26.25,52.85,-0.091,-0.472,-1.007
-0.853,0.314,0.164,-7.07,-31.08,60.409,-0.096,-0.466,-1.012
-0.877,0.327,0.172,-7.28,-37.38,69.86,-0.097,-0.461,-1.0
-0.924,0.354,0.205,-6.51,-41.44,75.179,-0.112,-0.454,-0.996
-0.955,0.373,0.225,-5.6,-43.82,78.96,-0.114,-0.45,-0.993
