ax,ay,az,gx,gy,gz,mx,my,mz
-0.983,0.184,0.202,-5.11,-4.06,1.82,-0.191,-0.33,-1.01
-0.996,0.176,0.203,-6.79,-3.08,0.77,-0.192,-0.335,-1.015
-1.0,0.172,0.195,-10.22,-0.84,-1.47,-0.189,-0.328,-1.007
-0.983,0.168,0.184,-12.74,0.91,-2.8,-0.194,-0.331,-1.001
-0.975,0.169,0.179,-14.35,0.91,-3.36,-0.191,-0.328,-1.012
-0.98,0.171,0.174,-14.98,0.07,-3.22,-0.19,-0.328,-1.004
-0.982,0.164,0.168,-14.77,-0.84,-3.01,-0.192,-0.332,-1.004
-0.982,0.153,0.164,-15.4,-0.77,-2.59,-0.192,-0.331,-1.005
-0.996,0.148,0.158,-18.76,-0.42,-1.47,-0.191,-0.332,-1.008
-0.988,0.146,0.152,-21.07,0.35,-0.63,-0.196,-0.331,-1.003
-0.97,0.149,0.139,-23.24,1.33,-0.07,-0.194,-0.331,-1.003
-0.96,0.155,0.133,-24.85,0.35,0.77,-0.192,-0.334,-1.001
-0.961,0.155,0.128,-25.76,-1.47,1.68,-0.195,-0.334,-0.998
-0.966,0.149,0.125,-27.16,-3.36,3.85,-0.196,-0.335,-0.993
-0.958,0.147,0.125,-28.91,-4.97,4.83,-0.192,-0.333,-0.994
-0.954,0.149,0.127,-30.73,-6.23,6.23,-0.194,-0.329,-0.995
-0.953,0.151,0.135,-32.48,-7.77,7.63,-0.192,-0.333,-0.984
-0.954,0.155,0.147,-34.58,-9.38,9.03,-0.195,-0.327,-0.988
-0.964,0.167,0.164,-38.29,-12.6,11.2,-0.193,-0.326,-0.981
-0.983,0.199,0.19,-39.9,-14.14,12.74,-0.196,-0.327,-0.978
-0.99,0.229,0.21,-40.81,-15.47,13.93,-0.195,-0.32,-0.977
-0.99,0.271,0.231,-40.04,-15.89,14.07,-0.2,-0.319,-0.97
-0.99,0.305,0.238,-36.75,-16.52,12.81,-0.193,-0.313,-0.968
-0.983,0.308,0.231,-25.34,-12.25,10.01,-0.2,-0.313,-0.956
-0.945,0.304,0.24,-18.9,-7.07,7.7,-0.207,-0.31,-0.96
-0.908,0.302,0.258,-14.0,-2.8,5.81,-0.199,-0.316,-0.955
-0.869,0.31,0.263,-10.08,-0.35,4.27,-0.196,-0.315,-0.954
-0.828,0.302,0.255,-9.87,2.66,1.68,-0.197,-0.318,-0.955
-0.777,0.314,0.274,-17.99,5.88,-2.59,-0.203,-0.318,-0.948
-0.726,0.348,0.314,-34.3,8.4,-11.27,-0.198,-0.317,-0.948
-0.662,0.417,0.347,-55.3,14.42,-32.13,-0.193,-0.317,-0.953
-0.612,0.495,0.361,-59.71,22.96,-45.29,-0.193,-0.321,-0.949
-0.559,0.564,0.375,-57.05,32.34,-61.25,-0.194,-0.324,-0.952
-0.51,0.601,0.385,-48.79,41.65,-77.56,-0.19,-0.334,-0.954
-0.476,0.607,0.384,-34.02,49.98,-91.84,-0.187,-0.343,-0.958
-0.478,0.604,0.371,-20.72,57.05,-113.33,-0.174,-0.364,-0.969
-0.534,0.609,0.359,-20.37,58.169,-128.45,-0.171,-0.37,-0.97
-0.623,0.635,0.367,-20.58,63.07,-139.86,-0.156,-0.393,-0.968
-0.707,0.678,0.342,-20.37,73.08,-149.38,-0.144,-0.41,-0.973
-0.763,0.735,0.313,-16.66,85.05,-175.63,-0.139,-0.424,-0.994
-0.793,0.837,0.31,-6.16,94.85,-171.43,-0.113,-0.44,-0.996
-0.808,0.862,0.345,1.82,94.36,-181.16,-0.105,-0.45,-1.0
-0.879,0.909,0.386,5.95,93.1,-189.21,-0.073,-0.477,-1.02
-0.951,0.905,0.408,5.25,97.93,-198.73,-0.058,-0.487,-1.025
-0.955,0.934,0.418,6.79,109.97,-204.89,-0.019,-0.504,-1.031
-0.922,1.032,0.446,9.38,127.75,-212.52,0.0,-0.515,-1.036
-0.83,1.021,0.565,27.51,139.86,-210.63,0.024,-0.525,-1.043
-0.771,0.999,0.637,26.74,133.35,-206.571,0.066,-0.536,-1.055
-0.736,1.019,0.655,9.24,123.41,-207.48,0.083,-0.539,-1.065
-0.703,1.081,0.654,-2.1,114.59,-207.97,0.13,-0.548,-1.062
-0.681,1.15,0.634,-2.52,110.39,-209.72,0.154,-0.55,-1.066
-0.655,1.158,0.649,0.7,111.3,-213.571,0.2,-0.552,-1.065
-0.544,1.122,0.653,5.95,109.06,-214.41,0.222,-0.555,-1.069
-0.447,1.062,0.655,6.16,104.23,-212.52,0.244,-0.551,-1.069
-0.384,1.028,0.641,-1.33,99.33,-209.3,0.292,-0.548,-1.063
-0.329,0.967,0.584,-7.42,93.52,-207.62,0.312,-0.536,-1.062
-0.271,0.959,0.566,-18.9,87.57,-210.28,0.353,-0.528,-1.044
-0.185,0.955,0.53,-35.14,83.649,-212.31,0.369,-0.522,-1.036
-0.408,1.055,1.122,-42.63,102.2,-211.61,0.406,-0.505,-1.024
-0.07,0.754,0.716,-115.5,136.71,-220.92,0.426,-0.491,-1.012
0.266,0.915,0.399,-121.31,95.97,-202.79,0.444,-0.473,-0.976
0.397,0.937,0.33,-110.04,80.99,-212.03,0.472,-0.463,-0.967
0.251,1.026,0.223,-32.34,65.52,-222.53,0.487,-0.452,-0.954
0.238,0.823,0.159,35.98,54.11,-210.49,0.512,-0.416,-0.953
0.329,0.574,0.099,87.22,44.31,-180.04,0.519,-0.403,-0.953
0.435,0.433,0.072,99.89,37.24,-160.44,0.541,-0.383,-0.953
0.496,0.353,0.112,91.28,31.57,-152.88,0.545,-0.367,-0.957
0.537,0.285,0.166,65.24,22.54,-145.321,0.558,-0.343,-0.958
0.637,0.267,0.252,47.53,18.06,-136.92,0.566,-0.336,-0.955
0.707,0.216,0.299,32.9,16.87,-125.44,0.57,-0.327,-0.955
0.761,0.149,0.302,17.78,14.56,-108.71,0.578,-0.299,-0.958
0.793,0.12,0.323,8.05,10.08,-91.91,0.58,-0.289,-0.955
0.804,0.113,0.335,2.31,7.0,-82.39,0.578,-0.276,-0.953
0.816,0.113,0.332,-0.42,5.74,-68.32,0.585,-0.269,-0.956
0.882,0.154,0.338,5.95,5.32,-56.28,0.59,-0.264,-0.96
0.88,0.183,0.328,13.72,5.32,-46.69,0.587,-0.256,-0.954
0.881,0.135,0.318,19.46,4.97,-40.32,0.585,-0.249,-0.95
0.895,0.119,0.321,20.09,4.9,-33.18,0.592,-0.244,-0.947
0.911,0.122,0.317,16.94,4.9,-27.37,0.592,-0.238,-0.951
0.91,0.128,0.302,17.71,5.04,-18.62,0.591,-0.237,-0.949
0.922,0.131,0.27,16.24,4.13,-14.91,0.589,-0.238,-0.952
0.938,0.124,0.285,11.48,3.64,-12.11,0.591,-0.235,-0.948
0.944,0.141,0.296,2.94,3.22,-10.85,0.588,-0.235,-0.946
0.937,0.167,0.3,-0.49,4.13,-9.87,0.593,-0.232,-0.952
0.936,0.174,0.304,1.12,3.57,-7.35,0.593,-0.235,-0.956
0.944,0.157,0.3,3.15,2.8,-6.93,0.597,-0.234,-0.952
0.934,0.155,0.292,5.11,2.38,-6.51,0.598,-0.23,-0.947
0.922,0.152,0.275,3.92,0.7,-6.86,0.595,-0.225,-0.948
0.909,0.162,0.27,3.78,-0.21,-6.02,0.596,-0.227,-0.946
0.894,0.166,0.261,2.1,-1.61,-5.53,0.596,-0.227,-0.952
0.913,0.166,0.274,6.58,-3.5,-4.76,0.596,-0.226,-0.952
0.911,0.132,0.29,11.13,-4.34,-3.29,0.59,-0.227,-0.946
0.888,0.112,0.306,10.43,-4.76,-1.75,0.594,-0.227,-0.95
0.908,0.128,0.321,4.48,-4.62,0.28,0.593,-0.224,-0.945
0.912,0.142,0.312,-0.98,-4.62,1.4,0.591,-0.228,-0.951
0.906,0.162,0.298,-4.34,-4.76,2.1,0.592,-0.223,-0.948
0.928,0.2,0.296,-4.2,-5.04,1.82,0.596,-0.223,-0.954
0.94,0.206,0.302,-2.17,-5.04,1.89,0.592,-0.227,-0.955
0.938,0.195,0.318,-0.07,-5.32,1.33,0.586,-0.228,-0.955
0.92,0.193,0.316,1.47,-5.25,0.28,0.591,-0.228,-0.957
0.91,0.187,0.31,1.75,-5.18,-1.26,0.592,-0.225,-0.952
0.902,0.189,0.311,1.47,-4.62,-2.73,0.585,-0.225,-0.944
0.906,0.193,0.313,-0.21,-2.73,-4.76,0.586,-0.223,-0.948
0.905,0.198,0.301,-0.7,-1.68,-5.53,0.593,-0.228,-0.955
0.897,0.195,0.294,-0.42,-0.98,-6.23,0.592,-0.219,-0.952
0.887,0.193,0.294,0.07,-0.77,-6.58,0.592,-0.217,-0.949
0.876,0.183,0.291,1.89,-1.33,-5.95,0.592,-0.225,-0.952
0.869,0.164,0.288,4.2,-2.66,-4.97,0.593,-0.222,-0.951
0.869,0.127,0.295,4.55,-2.73,-3.29,0.594,-0.218,-0.953
0.907,0.115,0.313,-0.28,-2.94,-2.45,0.592,-0.219,-0.953
0.91,0.132,0.32,-4.9,-2.94,-0.21,0.597,-0.218,-0.953
0.913,0.155,0.311,-6.37,-4.13,1.68,0.589,-0.22,-0.951
0.939,0.168,0.31,-5.18,-4.62,2.31,0.594,-0.222,-0.953
0.943,0.175,0.318,-1.47,-5.04,2.38,0.596,-0.224,-0.957
0.909,0.155,0.327,5.39,-5.46,2.87,0.589,-0.222,-0.955
0.92,0.142,0.341,5.04,-5.18,2.45,0.592,-0.221,-0.953
0.927,0.152,0.337,1.47,-3.57,1.47,0.592,-0.223,-0.953
0.924,0.173,0.332,-2.03,-2.45,0.0,0.593,-0.22,-0.954
0.909,0.197,0.33,-2.8,-1.33,-2.8,0.592,-0.224,-0.957
0.905,0.207,0.32,0.49,-0.42,-3.99,0.593,-0.223,-0.959
0.906,0.208,0.311,2.52,0.35,-4.83,0.595,-0.218,-0.95
0.898,0.19,0.309,4.76,1.26,-5.11,0.595,-0.217,-0.953
0.895,0.164,0.304,6.09,2.38,-4.83,0.594,-0.219,-0.954
0.896,0.14,0.303,5.6,3.22,-4.06,0.596,-0.216,-0.951
0.904,0.129,0.299,0.42,3.85,-2.31,0.598,-0.218,-0.943
0.912,0.135,0.297,-1.33,3.29,0.28,0.593,-0.215,-0.95
0.919,0.133,0.292,-2.8,3.15,1.96,0.599,-0.222,-0.945
0.934,0.144,0.301,-4.13,2.03,3.29,0.595,-0.217,-0.943
0.941,0.158,0.315,-4.9,2.03,3.22,0.589,-0.225,-0.941
0.938,0.16,0.319,-4.06,1.61,2.1,0.592,-0.218,-0.941
0.945,0.168,0.319,-3.01,-0.84,-0.77,0.594,-0.223,-0.937
0.943,0.17,0.317,-1.82,-1.96,-2.59,0.591,-0.224,-0.939
0.941,0.165,0.31,-0.07,-2.87,-3.71,0.595,-0.225,-0.941
0.953,0.148,0.3,0.42,-3.43,-3.78,0.591,-0.219,-0.945
0.981,0.138,0.312,-1.12,-3.22,-2.31,0.591,-0.221,-0.94
1.004,0.14,0.329,-3.64,-3.01,0.63,0.595,-0.219,-0.945
1.026,0.152,0.372,-3.29,-3.01,9.03,0.598,-0.221,-0.943
1.063,0.152,0.352,-1.75,-3.15,17.08,0.593,-0.22,-0.937
1.092,0.155,0.366,-2.17,-3.29,24.64,0.591,-0.219,-0.937
1.115,0.168,0.383,-4.06,-3.85,30.94,0.592,-0.229,-0.934
1.126,0.192,0.379,-7.28,-5.67,36.12,0.593,-0.234,-0.937
1.121,0.212,0.381,-8.68,-8.75,39.9,0.592,-0.24,-0.941
1.068,0.228,0.373,-6.3,-15.82,45.36,0.591,-0.242,-0.944
0.969,0.215,0.358,-5.53,-20.86,51.8,0.591,-0.249,-0.943
0.918,0.215,0.373,-8.89,-24.08,59.22,0.587,-0.253,-0.949
0.885,0.251,0.361,-12.67,-26.74,67.129,0.589,-0.266,-0.948
0.878,0.306,0.378,-14.21,-29.54,73.71,0.584,-0.271,-0.954
0.823,0.329,0.413,-5.95,-34.37,80.08,0.582,-0.319,-0.959
0.706,0.296,0.408,16.24,-41.44,97.09,0.575,-0.297,-0.963
0.707,0.274,0.409,18.27,-44.8,111.02,0.574,-0.299,-0.963
0.758,0.3,0.388,7.91,-46.06,124.88,0.57,-0.328,-0.972
0.782,0.369,0.342,-14.98,-46.9,131.18,0.563,-0.337,-0.976
0.711,0.457,0.307,-34.93,-52.64,131.67,0.549,-0.354,-0.983
0.522,0.557,0.324,-31.92,-64.54,134.68,0.544,-0.367,-0.985
0.476,0.569,0.333,-17.43,-71.26,143.43,0.534,-0.394,-0.99
0.504,0.621,0.332,-2.17,-74.62,158.69,0.525,-0.404,-1.002
0.552,0.625,0.281,0.14,-74.41,166.39,0.517,-0.412,-1.005
0.464,0.607,0.272,5.39,-81.13,170.03,0.495,-0.44,-1.014
0.31,0.59,0.307,-8.26,-87.5,170.8,0.48,-0.455,-1.027
0.106,0.561,0.346,-24.71,-92.19,173.67,0.458,-0.475,-1.031
0.033,0.528,0.307,-40.11,-98.0,186.41,0.44,-0.482,-1.037
-0.016,0.562,0.269,-58.8,-102.69,203.63,0.403,-0.502,-1.038
-0.109,0.645,0.222,-79.87,-104.65,212.59,0.382,-0.517,-1.036
-0.217,0.76,0.239,-82.6,-104.02,219.1,0.37,-0.528,-1.032
-0.266,0.826,0.226,-53.2,-111.58,233.17,0.327,-0.543,-1.026
-0.315,0.782,0.267,-18.97,-120.54,249.2,0.303,-0.544,-1.032
-0.417,0.86,0.344,-8.61,-128.45,255.08,0.254,-0.558,-1.038
-0.544,0.853,0.336,-19.67,-132.3,249.48,0.229,-0.56,-1.034
-0.615,0.836,0.327,-25.27,-129.64,248.92,0.177,-0.556,-1.025
-0.628,0.861,0.376,-46.69,-124.18,244.65,0.154,-0.559,-1.023
-0.659,1.021,0.409,-50.68,-123.13,240.24,0.128,-0.553,-1.013
-0.679,1.043,0.426,-32.2,-123.2,234.36,0.083,-0.546,-1.006
-0.683,1.026,0.416,-8.47,-124.04,226.94,0.059,-0.539,-0.999
-0.654,0.99,0.401,10.15,-122.71,213.15,0.018,-0.525,-0.994
-0.601,0.898,0.39,38.08,-119.7,193.76,0.005,-0.515,-0.986
-0.595,0.837,0.406,52.149,-116.97,181.65,-0.03,-0.497,-0.991
-0.607,0.805,0.427,58.87,-113.96,168.35,-0.048,-0.482,-0.989
-0.628,0.793,0.434,62.72,-112.07,154.35,-0.058,-0.439,-0.985
-0.648,0.762,0.411,69.929,-108.5,141.12,-0.085,-0.458,-0.982
-0.671,0.681,0.374,81.62,-99.19,126.63,-0.094,-0.448,-0.986
-0.717,0.598,0.361,82.53,-86.59,114.59,-0.108,-0.434,-0.984
-0.751,0.54,0.37,78.19,-74.06,101.78,-0.115,-0.421,-0.986
-0.795,0.485,0.376,70.21,-63.56,94.639,-0.132,-0.41,-0.991
-0.856,0.437,0.386,61.04,-55.65,92.19,-0.137,-0.406,-0.984
-0.927,0.38,0.384,47.11,-48.3,90.159,-0.146,-0.397,-0.983
-1.004,0.342,0.38,26.11,-41.51,88.62,-0.152,-0.384,-0.986
-1.042,0.343,0.376,-23.8,-29.61,82.46,-0.159,-0.388,-0.98
-1.151,0.194,0.426,-99.96,0.63,71.399,-0.169,-0.372,-0.971
-1.099,0.367,0.276,-148.96,20.23,63.98,-0.171,-0.364,-0.959
-1.014,0.579,0.213,-153.44,24.57,43.19,-0.174,-0.358,-0.952
-0.962,0.605,0.193,-122.99,26.53,25.83,-0.176,-0.347,-0.948
-0.946,0.565,0.166,-85.47,25.76,26.04,-0.179,-0.349,-0.943
-0.908,0.509,0.149,-34.72,19.32,24.29,-0.18,-0.343,-0.941
-0.884,0.441,0.152,-14.0,14.98,13.86,-0.18,-0.341,-0.94
-0.883,0.397,0.173,-4.27,8.33,5.39,-0.183,-0.339,-0.944
-0.892,0.382,0.19,2.59,3.57,-0.91,-0.182,-0.344,-0.941
-0.897,0.362,0.187,9.52,0.35,-4.34,-0.184,-0.343,-0.944
-0.902,0.342,0.169,16.31,-0.7,-2.73,-0.187,-0.341,-0.943
-0.915,0.309,0.147,21.35,1.61,-1.26,-0.186,-0.341,-0.948
-0.945,0.269,0.124,15.61,4.76,0.14,-0.183,-0.345,-0.951
-0.95,0.276,0.117,6.93,8.89,1.68,-0.184,-0.343,-0.95
-0.937,0.291,0.111,0.42,12.18,4.27,-0.188,-0.343,-0.954
-0.924,0.304,0.102,-3.01,13.37,6.65,-0.183,-0.342,-0.96
-0.921,0.311,0.088,-5.81,12.53,7.42,-0.186,-0.34,-0.955
-0.938,0.313,0.077,-11.06,9.73,5.74,-0.189,-0.339,-0.963
-0.962,0.325,0.071,-14.14,7.77,3.57,-0.185,-0.339,-0.964
-0.965,0.328,0.066,-16.66,6.09,1.12,-0.188,-0.338,-0.956
-0.959,0.332,0.054,-19.53,3.85,-2.38,-0.19,-0.334,-0.96
-0.955,0.339,0.044,-21.63,1.54,-6.72,-0.189,-0.334,-0.952
-0.95,0.343,0.043,-22.19,-1.68,-15.05,-0.187,-0.336,-0.955
-0.946,0.344,0.042,-18.13,-4.34,-19.46,-0.187,-0.339,-0.956
-0.947,0.336,0.051,-13.72,-7.35,-23.59,-0.186,-0.344,-0.954
-0.941,0.325,0.064,-9.1,-11.41,-26.81,-0.183,-0.348,-0.952
-0.932,0.314,0.08,-4.9,-15.61,-28.63,-0.18,-0.354,-0.952
-0.931,0.312,0.094,-0.63,-20.02,-29.12,-0.178,-0.353,-0.946
-0.945,0.302,0.119,9.31,-25.48,-27.44,-0.175,-0.36,-0.947
-1.002,0.293,0.202,26.88,-23.17,-21.84,-0.169,-0.36,-0.942
-1.082,0.224,0.346,49.7,-8.4,-10.43,-0.171,-0.36,-0.939
-1.144,0.062,0.452,73.71,20.72,5.53,-0.173,-0.361,-0.957
-1.02,0.004,0.398,71.19,38.01,19.46,-0.171,-0.36,-0.966
-0.871,-0.011,0.349,42.21,22.61,14.0,-0.175,-0.36,-0.97
-0.881,0.074,0.271,-16.8,0.49,3.08,-0.177,-0.362,-0.971
-0.939,0.193,0.222,-46.2,-8.05,-1.12,-0.174,-0.358,-0.963
-0.957,0.294,0.188,-56.77,-10.43,-2.8,-0.176,-0.357,-0.965
-0.946,0.369,0.165,-48.23,-10.36,-1.96,-0.173,-0.359,-0.962
-0.937,0.4,0.143,-24.36,-10.85,2.1,-0.173,-0.357,-0.958
-0.949,0.36,0.108,18.13,-11.41,11.27,-0.176,-0.358,-0.95
-0.963,0.312,0.096,35.21,-9.45,15.4,-0.177,-0.356,-0.953
-0.968,0.283,0.096,41.02,-6.72,17.43,-0.177,-0.355,-0.958
-0.957,0.264,0.101,40.53,-3.99,18.9,-0.179,-0.351,-0.964
-0.949,0.233,0.115,35.14,-2.52,19.81,-0.179,-0.348,-0.958
-0.942,0.223,0.131,15.12,-3.99,18.2,-0.178,-0.352,-0.968
-0.939,0.255,0.148,0.77,-7.21,15.12,-0.178,-0.35,-0.968
-0.943,0.28,0.162,-7.98,-10.5,12.25,-0.18,-0.347,-0.968
-0.946,0.3,0.18,-12.25,-12.32,9.87,-0.178,-0.341,-0.958
-0.95,0.317,0.188,-12.74,-13.09,6.79,-0.182,-0.344,-0.955
-0.966,0.329,0.188,-8.96,-12.46,4.55,-0.176,-0.345,-0.955
-0.987,0.328,0.19,-2.59,-10.43,3.78,-0.181,-0.343,-0.966
-0.993,0.316,0.19,8.61,-5.32,4.48,-0.178,-0.343,-0.954
-0.975,0.301,0.184,15.47,-2.31,4.76,-0.187,-0.342,-0.956
-0.964,0.292,0.185,20.93,-0.98,5.53,-0.182,-0.343,-0.957
-0.961,0.283,0.183,24.64,-0.63,6.58,-0.183,-0.341,-0.957
-0.961,0.273,0.183,26.18,-0.7,7.14,-0.184,-0.336,-0.956
-0.959,0.261,0.179,25.55,-1.4,6.79,-0.185,-0.341,-0.959
-0.958,0.255,0.173,22.54,-2.24,6.23,-0.185,-0.339,-0.962
-0.962,0.256,0.167,1.12,-3.22,3.99,-0.178,-0.336,-0.964
-0.963,0.251,0.16,16.31,-3.36,2.94,-0.179,-0.339,-0.963
-0.961,0.245,0.158,16.03,-2.73,1.82,-0.181,-0.34,-0.96
-0.96,0.237,0.158,16.1,-2.1,0.84,-0.182,-0.339,-0.967
-0.964,0.226,0.156,15.4,-1.47,-0.07,-0.186,-0.336,-0.966
-0.971,0.215,0.159,13.86,-1.26,-1.05,-0.18,-0.336,-0.968
-0.975,0.204,0.164,11.41,-1.33,-1.4,-0.186,-0.335,-0.97
-0.977,0.191,0.166,5.81,-1.4,-2.03,-0.182,-0.335,-0.976
-0.979,0.193,0.166,2.31,-2.17,-1.96,-0.183,-0.333,-0.977
-0.973,0.196,0.168,0.0,-2.38,-1.61,-0.183,-0.338,-0.975
-0.965,0.193,0.173,-2.45,-2.59,-1.19,-0.185,-0.342,-0.973
-0.964,0.198,0.173,-4.69,-2.52,-0.35,-0.183,-0.341,-0.972
-0.965,0.209,0.173,-7.07,-2.59,-0.49,-0.183,-0.338,-0.973
-0.966,0.223,0.18,-8.82,-2.31,-0.56,-0.185,-0.338,-0.969
-0.964,0.229,0.183,-7.98,-2.38,-0.07,-0.184,-0.341,-0.966
-0.962,0.234,0.182,-7.42,-2.45,0.56,-0.188,-0.338,-0.969
-0.966,0.246,0.18,-6.65,-2.66,0.56,-0.185,-0.339,-0.967
-0.973,0.252,0.181,-5.32,-2.38,0.42,-0.183,-0.338,-0.967
-0.974,0.25,0.181,-2.94,-1.82,0.28,-0.189,-0.344,-0.969
-0.971,0.249,0.182,-0.28,-1.68,-0.07,-0.187,-0.346,-0.971
-0.971,0.251,0.178,0.7,-1.68,-0.49,-0.188,-0.343,-0.966
-0.974,0.249,0.179,2.59,-1.61,-0.49,-0.188,-0.341,-0.968
-0.973,0.242,0.177,4.48,-1.4,-0.28,-0.189,-0.338,-0.971
-0.97,0.236,0.172,4.69,-1.47,-0.7,-0.189,-0.338,-0.97
-0.968,0.232,0.169,5.53,-1.54,-0.91,-0.187,-0.339,-0.967
-0.966,0.226,0.167,6.37,-1.82,-0.84,-0.192,-0.341,-0.968
-0.966,0.216,0.17,6.72,-1.96,-0.35,-0.188,-0.34,-0.973
-0.966,0.215,0.17,5.81,-2.38,0.35,-0.189,-0.341,-0.966
-0.968,0.215,0.173,4.48,-2.66,0.0,-0.188,-0.34,-0.972
-0.97,0.217,0.176,3.29,-2.73,0.07,-0.182,-0.334,-0.971
-0.971,0.217,0.18,1.61,-2.8,0.28,-0.187,-0.339,-0.972
-0.97,0.221,0.176,0.84,-2.66,0.14,-0.186,-0.337,-0.971
-0.967,0.227,0.174,0.35,-2.59,-0.14,-0.187,-0.336,-0.971
-0.966,0.229,0.175,0.35,-2.31,-0.35,-0.188,-0.336,-0.969
-0.965,0.228,0.176,0.77,-2.17,-0.28,-0.19,-0.337,-0.97
-0.969,0.226,0.176,0.07,-2.17,-0.35,-0.187,-0.345,-0.97
-0.968,0.234,0.177,-0.77,-2.24,-0.56,-0.184,-0.342,-0.973
-0.966,0.233,0.18,-0.7,-2.52,-0.77,-0.188,-0.338,-0.972
-0.969,0.23,0.185,0.21,-2.87,-0.14,-0.191,-0.34,-0.978
-0.973,0.231,0.186,0.14,-2.87,0.14,-0.186,-0.341,-0.969
-0.971,0.236,0.189,0.28,-2.73,0.07,-0.185,-0.343,-0.973
-0.965,0.24,0.19,1.96,-2.66,0.07,-0.187,-0.343,-0.968
-0.968,0.238,0.192,3.5,-2.73,0.14,-0.185,-0.34,-0.968
-0.962,0.236,0.194,4.27,-2.66,0.0,-0.187,-0.34,-0.966
-0.961,0.238,0.191,4.69,-3.22,-0.49,-0.189,-0.342,-0.969
-0.969,0.236,0.19,4.62,-3.22,-0.7,-0.189,-0.342,-0.972
-0.965,0.232,0.188,5.18,-2.8,-0.35,-0.191,-0.338,-0.975
-0.96,0.236,0.184,4.55,-3.01,-0.84,-0.19,-0.34,-0.976
-0.959,0.236,0.178,4.62,-3.08,-1.33,-0.186,-0.343,-0.98
-0.96,0.232,0.177,5.53,-2.73,-0.35,-0.187,-0.336,-0.974
-0.959,0.225,0.179,6.58,-2.52,0.42,-0.19,-0.336,-0.975
-0.955,0.227,0.183,5.74,-2.87,0.28,-0.191,-0.335,-0.978
-0.959,0.23,0.184,5.67,-3.57,0.35,-0.193,-0.34,-0.975
-0.969,0.23,0.193,6.02,-3.64,0.91,-0.192,-0.342,-0.973
-0.973,0.229,0.196,6.16,-3.5,1.19,-0.19,-0.337,-0.97
-0.978,0.231,0.197,5.53,-3.15,0.7,-0.19,-0.341,-0.974
-0.979,0.234,0.196,5.53,-2.8,0.21,-0.191,-0.341,-0.972
-0.974,0.237,0.196,6.37,-2.59,0.35,-0.188,-0.34,-0.977
-0.965,0.233,0.19,8.61,-2.24,0.28,-0.194,-0.335,-0.981
-0.962,0.231,0.189,10.08,-2.17,0.0,-0.188,-0.341,-0.983
-0.958,0.229,0.188,11.06,-2.24,-0.21,-0.193,-0.339,-0.975
-0.956,0.223,0.189,11.48,-2.17,-0.21,-0.192,-0.338,-0.98
-0.958,0.22,0.188,11.34,-2.52,-0.42,-0.189,-0.338,-0.984
-0.962,0.218,0.188,10.29,-2.1,-0.14,-0.189,-0.334,-0.979
-0.96,0.222,0.188,9.87,-2.45,0.14,-0.19,-0.331,-0.982
-0.959,0.223,0.187,9.87,-2.66,0.49,-0.191,-0.334,-0.979
-0.96,0.218,0.187,9.94,-3.01,0.7,-0.187,-0.334,-0.981
-0.96,0.22,0.187,9.1,-2.94,0.98,-0.184,-0.334,-0.981
-0.959,0.222,0.186,8.12,-3.15,0.49,-0.19,-0.336,-0.982
-0.961,0.221,0.187,7.84,-3.15,0.07,-0.192,-0.334,-0.981
-0.964,0.221,0.187,7.77,-3.08,0.14,-0.186,-0.336,-0.985
-0.968,0.22,0.191,7.84,-3.22,0.07,-0.189,-0.335,-0.98
-0.965,0.218,0.192,7.77,-3.22,0.0,-0.187,-0.339,-0.986
-0.968,0.213,0.194,8.26,-3.22,0.0,-0.185,-0.336,-0.99
-0.969,0.208,0.195,8.19,-2.94,0.21,-0.185,-0.337,-0.988
-0.967,0.209,0.197,7.28,-2.94,-0.07,-0.186,-0.332,-0.987
-0.966,0.209,0.199,6.51,-3.5,-0.56,-0.186,-0.337,-0.979
-0.966,0.206,0.199,6.65,-3.29,-0.14,-0.19,-0.335,-0.988
-0.965,0.205,0.201,5.95,-3.43,0.0,-0.187,-0.334,-0.991
-0.965,0.207,0.2,4.76,-3.36,-0.7,-0.186,-0.339,-0.992
-0.969,0.207,0.198,3.92,-3.15,-0.56,-0.187,-0.339,-0.985
-0.968,0.211,0.193,3.57,-3.08,-0.56,-0.185,-0.336,-0.986
-0.96,0.208,0.197,3.43,-3.01,-0.49,-0.187,-0.34,-0.988
-0.957,0.214,0.194,3.08,-3.36,-0.77,-0.186,-0.337,-0.992
-0.964,0.212,0.192,3.01,-3.64,-0.49,-0.184,-0.336,-0.984
-0.965,0.209,0.194,2.73,-3.43,-0.07,-0.188,-0.339,-0.986
-0.963,0.21,0.196,2.24,-3.29,0.0,-0.185,-0.339,-0.993
-0.961,0.214,0.197,1.89,-3.57,0.07,-0.184,-0.335,-0.987
-0.96,0.22,0.197,2.24,-3.71,0.28,-0.185,-0.335,-0.99
-0.964,0.219,0.195,3.01,-3.78,0.49,-0.187,-0.338,-0.989
-0.972,0.218,0.198,3.29,-4.2,0.28,-0.187,-0.341,-0.988
-0.974,0.218,0.2,3.01,-3.78,-0.21,-0.187,-0.338,-0.989
