ax,ay,az,gx,gy,gz,mx,my,mz
-0.139,0.702,0.691,0.77,-1.82,-0.28,0.189,-0.485,-1.119
-0.141,0.702,0.691,0.77,-1.89,0.0,0.185,-0.481,-1.12
-0.141,0.703,0.69,0.63,-1.82,-0.28,0.189,-0.486,-1.122
-0.142,0.7,0.692,0.63,-1.68,-0.21,0.187,-0.481,-1.121
-0.138,0.703,0.691,0.49,-1.82,-0.14,0.186,-0.482,-1.123
-0.137,0.705,0.691,0.35,-1.82,-0.42,0.188,-0.482,-1.128
-0.139,0.701,0.691,0.49,-1.82,0.14,0.184,-0.482,-1.121
-0.141,0.703,0.69,0.21,-1.89,-0.21,0.186,-0.483,-1.118
-0.14,0.703,0.69,0.21,-1.68,-0.14,0.191,-0.485,-1.125
-0.139,0.704,0.691,0.28,-1.75,0.0,0.187,-0.486,-1.115
-0.141,0.704,0.69,0.28,-1.47,-0.07,0.184,-0.483,-1.122
-0.143,0.7,0.69,0.42,-1.68,0.0,0.187,-0.482,-1.124
-0.142,0.704,0.69,0.21,-1.61,-0.28,0.187,-0.486,-1.119
-0.139,0.705,0.69,0.42,-1.75,-0.35,0.19,-0.485,-1.121
-0.141,0.703,0.69,0.49,-1.75,0.0,0.187,-0.48,-1.124
-0.14,0.704,0.689,0.28,-1.75,-0.28,0.187,-0.483,-1.127
-0.139,0.704,0.691,0.49,-1.68,-0.07,0.186,-0.483,-1.123
-0.138,0.703,0.688,0.35,-1.54,-0.07,0.185,-0.485,-1.121
-0.139,0.7,0.692,0.56,-1.4,-0.14,0.192,-0.487,-1.119
-0.138,0.702,0.691,0.21,-1.4,-0.07,0.187,-0.486,-1.12
-0.139,0.703,0.69,0.0,-1.47,-0.14,0.186,-0.483,-1.123
-0.139,0.706,0.691,0.35,-1.54,0.0,0.19,-0.488,-1.122
-0.137,0.703,0.695,0.63,-1.54,0.07,0.19,-0.485,-1.128
-0.135,0.692,0.711,0.07,-1.26,0.0,0.188,-0.489,-1.125
-0.126,0.675,0.721,-3.08,-1.33,0.14,0.19,-0.484,-1.126
-0.118,0.693,0.718,-7.35,-2.03,0.0,0.19,-0.486,-1.118
-0.116,0.697,0.72,-8.26,-3.22,0.63,0.183,-0.488,-1.122
-0.109,0.69,0.724,-9.59,-5.18,2.1,0.186,-0.492,-1.124
-0.097,0.728,0.797,-9.31,-6.51,3.99,0.188,-0.484,-1.122
-0.066,0.754,0.829,-5.81,-6.86,3.64,0.189,-0.481,-1.124
-0.02,0.685,0.856,-7.21,-7.91,3.22,0.187,-0.491,-1.123
0.069,0.723,0.822,-13.02,-7.77,2.59,0.182,-0.487,-1.12
0.128,0.723,0.862,-12.95,-13.72,-1.47,0.186,-0.493,-1.112
0.129,0.693,0.908,-11.06,-22.19,1.89,0.186,-0.494,-1.115
0.157,0.607,0.927,-16.31,-25.41,6.86,0.186,-0.493,-1.115
0.254,0.679,0.953,-3.71,-18.97,4.48,0.183,-0.496,-1.11
0.24,0.757,0.978,12.32,-18.48,2.45,0.185,-0.498,-1.12
0.205,0.749,1.018,44.38,-15.54,8.89,0.185,-0.499,-1.131
0.186,0.685,1.032,75.6,-14.42,16.52,0.187,-0.502,-1.13
0.174,0.638,1.089,85.12,-12.25,19.39,0.187,-0.497,-1.149
0.131,0.602,1.066,71.19,-10.01,18.69,0.189,-0.497,-1.156
0.059,0.647,1.063,58.169,-3.85,25.62,0.189,-0.498,-1.164
0.019,0.705,1.035,59.57,-0.7,28.84,0.191,-0.492,-1.177
-0.024,0.685,1.011,64.33,4.34,25.62,0.19,-0.494,-1.181
-0.058,0.609,0.999,70.0,9.8,29.47,0.192,-0.488,-1.189
-0.089,0.579,1.001,72.03,14.63,38.15,0.195,-0.485,-1.195
-0.121,0.525,0.967,74.899,19.32,46.41,0.192,-0.48,-1.205
-0.213,0.4,0.963,76.3,19.74,57.75,0.194,-0.477,-1.216
-0.285,0.405,0.964,68.389,21.42,64.12,0.194,-0.472,-1.219
-0.344,0.423,0.963,51.03,25.62,61.74,0.191,-0.467,-1.223
-0.385,0.46,0.969,31.71,29.4,59.36,0.189,-0.464,-1.233
-0.424,0.569,0.968,4.83,35.07,52.71,0.194,-0.469,-1.237
-0.444,0.663,0.908,-0.42,38.36,45.36,0.189,-0.469,-1.234
-0.423,0.721,0.863,3.64,39.34,34.44,0.196,-0.468,-1.238
-0.367,0.71,0.882,16.45,44.66,22.12,0.193,-0.468,-1.237
-0.293,0.672,0.882,35.21,47.67,16.94,0.195,-0.463,-1.237
-0.206,0.573,0.918,54.6,46.69,12.74,0.202,-0.462,-1.244
-0.071,0.383,0.97,74.34,45.01,9.38,0.209,-0.462,-1.253
-0.001,0.275,1.024,78.05,40.74,10.08,0.214,-0.451,-1.261
0.023,0.215,1.055,69.3,38.43,10.43,0.217,-0.446,-1.263
0.012,0.184,1.066,52.5,37.03,11.9,0.222,-0.439,-1.27
-0.01,0.213,1.07,35.0,37.87,15.26,0.223,-0.44,-1.269
-0.088,0.324,1.093,17.29,38.57,15.33,0.226,-0.436,-1.276
-0.18,0.396,1.086,14.56,40.88,16.31,0.235,-0.432,-1.273
-0.236,0.441,1.063,16.52,45.5,16.66,0.237,-0.432,-1.273
-0.242,0.44,1.036,20.09,51.45,14.7,0.244,-0.428,-1.272
-0.23,0.416,1.017,25.62,55.649,13.93,0.246,-0.428,-1.274
-0.268,0.362,0.999,25.13,56.629,11.34,0.257,-0.426,-1.277
-0.301,0.299,0.96,17.43,56.28,8.4,0.259,-0.427,-1.283
-0.321,0.268,0.899,5.74,56.0,7.84,0.267,-0.423,-1.281
-0.313,0.294,0.824,-5.6,55.159,8.47,0.274,-0.425,-1.276
-0.284,0.355,0.774,-10.92,50.82,8.4,0.277,-0.426,-1.273
-0.263,0.391,0.727,13.86,40.25,9.17,0.281,-0.433,-1.272
-0.267,0.41,0.773,20.23,32.34,6.79,0.286,-0.434,-1.273
-0.26,0.409,0.783,34.44,27.23,6.09,0.293,-0.429,-1.272
-0.243,0.368,0.799,42.91,23.45,3.64,0.293,-0.425,-1.275
-0.223,0.309,0.8,45.78,21.35,3.92,0.297,-0.423,-1.278
-0.22,0.302,0.806,44.1,18.34,5.74,0.304,-0.412,-1.288
-0.187,0.286,0.8,38.71,16.45,3.22,0.297,-0.406,-1.282
-0.132,0.23,0.787,34.23,14.63,2.31,0.303,-0.404,-1.284
-0.083,0.212,0.778,27.3,11.13,3.78,0.304,-0.399,-1.281
-0.053,0.227,0.795,18.48,7.7,3.57,0.303,-0.396,-1.289
-0.026,0.234,0.811,13.37,4.69,3.57,0.308,-0.397,-1.286
0.0,0.225,0.841,12.32,0.42,5.67,0.305,-0.398,-1.29
-0.002,0.233,0.836,8.4,-2.03,5.81,0.31,-0.397,-1.289
-0.019,0.276,0.839,4.55,-4.2,6.44,0.31,-0.397,-1.294
-0.016,0.311,0.867,5.18,-5.67,6.3,0.303,-0.394,-1.296
-0.004,0.295,0.887,10.01,-6.16,6.09,0.306,-0.394,-1.293
-0.006,0.216,0.887,15.12,-6.37,8.05,0.299,-0.396,-1.296
0.003,0.113,0.891,8.19,-7.21,9.17,0.302,-0.394,-1.298
0.001,0.136,0.892,-3.85,-7.63,10.71,0.301,-0.392,-1.3
-0.017,0.197,0.895,-12.39,-7.77,11.76,0.299,-0.395,-1.298
-0.01,0.229,0.901,-14.14,-8.75,10.85,0.297,-0.397,-1.296
0.004,0.247,0.876,-13.58,-9.24,9.66,0.295,-0.398,-1.296
0.016,0.251,0.881,-10.85,-10.43,8.54,0.294,-0.397,-1.298
0.018,0.248,0.881,-6.93,-10.78,8.26,0.295,-0.409,-1.298
0.049,0.248,0.882,-3.71,-10.15,8.19,0.295,-0.405,-1.293
0.036,0.232,0.855,-0.21,-10.01,9.1,0.291,-0.402,-1.291
0.009,0.215,0.842,3.64,-10.36,11.2,0.291,-0.405,-1.29
-0.003,0.198,0.834,3.85,-10.64,12.67,0.287,-0.404,-1.295
0.007,0.187,0.844,1.96,-10.92,14.07,0.285,-0.404,-1.301
0.026,0.195,0.864,0.63,-13.02,16.24,0.283,-0.406,-1.298
0.014,0.244,0.897,2.03,-13.37,17.71,0.279,-0.407,-1.302
0.0,0.253,0.911,5.81,-13.65,17.85,0.277,-0.409,-1.297
-0.028,0.251,0.929,10.36,-12.74,17.5,0.274,-0.405,-1.303
-0.025,0.243,0.944,13.58,-10.5,16.52,0.272,-0.404,-1.303
0.0,0.214,0.947,13.02,-8.26,14.35,0.27,-0.401,-1.303
0.016,0.2,0.944,8.68,-6.72,12.6,0.266,-0.399,-1.304
0.01,0.195,0.938,6.58,-6.58,11.13,0.262,-0.401,-1.307
0.0,0.22,0.956,6.79,-6.51,9.87,0.263,-0.399,-1.304
-0.025,0.261,0.965,6.86,-6.16,7.28,0.259,-0.398,-1.303
-0.049,0.257,0.959,9.52,-4.48,3.5,0.263,-0.39,-1.311
-0.049,0.229,0.956,12.32,-2.03,0.42,0.257,-0.391,-1.305
-0.03,0.216,0.944,9.17,-0.56,-2.31,0.262,-0.389,-1.307
-0.023,0.188,0.928,6.65,0.42,-3.22,0.26,-0.391,-1.317
-0.008,0.153,0.911,3.36,1.75,-3.15,0.261,-0.39,-1.314
0.013,0.142,0.888,-0.56,1.54,-2.03,0.266,-0.393,-1.313
0.013,0.158,0.885,-3.36,-0.49,1.19,0.266,-0.394,-1.308
0.002,0.192,0.901,-4.13,-1.47,1.68,0.263,-0.389,-1.312
0.005,0.218,0.906,-4.83,-2.45,0.63,0.266,-0.392,-1.307
0.008,0.228,0.918,-4.48,-3.15,-1.19,0.265,-0.392,-1.31
0.003,0.24,0.921,-3.57,-4.27,-1.33,0.265,-0.394,-1.309
-0.003,0.238,0.924,-1.19,-4.76,-1.05,0.265,-0.393,-1.309
-0.013,0.226,0.932,1.54,-5.39,-1.26,0.262,-0.393,-1.311
-0.02,0.209,0.947,3.64,-6.02,-0.7,0.26,-0.392,-1.313
-0.002,0.205,0.958,1.82,-6.02,-0.77,0.259,-0.389,-1.309
-0.01,0.218,0.969,-0.84,-7.0,-0.91,0.259,-0.394,-1.309
-0.025,0.226,0.988,-2.45,-7.35,-0.84,0.259,-0.391,-1.307
-0.027,0.225,0.992,-1.33,-7.0,-0.91,0.255,-0.359,-1.317
-0.013,0.209,1.0,-0.28,-6.93,-1.4,0.259,-0.396,-1.316
0.0,0.202,1.008,-2.17,-6.72,-1.19,0.258,-0.397,-1.318
0.011,0.207,1.0,-2.38,-6.72,-0.28,0.261,-0.391,-1.311
0.028,0.207,0.99,-1.54,-7.35,1.05,0.261,-0.39,-1.311
0.058,0.202,0.997,-2.24,-8.68,1.33,0.256,-0.389,-1.311
0.093,0.205,0.995,-4.48,-8.89,1.96,0.256,-0.394,-1.313
0.061,0.224,0.976,15.4,-10.85,7.35,0.259,-0.397,-1.312
-0.065,0.184,1.013,10.22,-12.6,11.9,0.253,-0.396,-1.311
-0.126,0.133,1.043,6.23,-11.76,12.95,0.249,-0.394,-1.314
-0.181,0.149,1.052,-5.46,-8.4,14.07,0.251,-0.391,-1.316
-0.209,0.193,1.037,-15.54,-5.53,13.72,0.25,-0.399,-1.313
-0.179,0.221,1.012,-21.84,-3.29,10.78,0.247,-0.401,-1.304
-0.109,0.237,1.003,-24.22,-1.4,3.92,0.246,-0.403,-1.308
-0.046,0.308,0.99,-17.29,-1.05,-0.21,0.244,-0.405,-1.305
-0.025,0.287,0.96,-3.36,-1.47,-2.87,0.244,-0.409,-1.306
-0.035,0.252,0.955,9.24,-2.73,-4.13,0.245,-0.403,-1.305
-0.051,0.246,0.936,12.88,-2.1,-4.76,0.247,-0.406,-1.313
-0.044,0.266,0.934,14.35,-1.19,-5.81,0.246,-0.401,-1.302
-0.029,0.24,0.937,19.46,-0.77,-7.28,0.243,-0.403,-1.303
-0.039,0.184,0.962,21.49,-1.33,-5.88,0.248,-0.399,-1.312
-0.051,0.138,0.962,14.84,0.42,-5.04,0.246,-0.399,-1.309
-0.057,0.136,0.947,3.78,2.1,-4.06,0.252,-0.401,-1.32
-0.056,0.167,0.94,-5.88,3.08,-2.24,0.251,-0.398,-1.313
-0.045,0.201,0.933,-11.27,4.34,0.28,0.249,-0.397,-1.308
-0.037,0.233,0.906,-11.2,3.92,0.84,0.247,-0.395,-1.307
-0.039,0.229,0.903,-6.72,3.01,0.56,0.245,-0.399,-1.308
-0.044,0.221,0.918,-1.12,1.96,0.77,0.247,-0.395,-1.309
-0.035,0.199,0.926,3.08,1.19,0.0,0.251,-0.4,-1.31
-0.023,0.191,0.922,4.13,0.49,-1.12,0.254,-0.396,-1.313
-0.027,0.207,0.914,6.72,0.63,-2.8,0.255,-0.399,-1.311
-0.046,0.212,0.906,11.27,1.4,-3.85,0.261,-0.401,-1.306
-0.067,0.186,0.897,14.56,1.89,-4.55,0.258,-0.397,-1.303
-0.078,0.143,0.895,12.46,2.03,-4.76,0.258,-0.396,-1.316
-0.062,0.121,0.89,6.51,2.31,-3.92,0.261,-0.395,-1.315
-0.027,0.131,0.895,0.0,1.47,-2.59,0.259,-0.392,-1.315
-0.008,0.169,0.902,-7.84,-0.42,-0.63,0.26,-0.395,-1.319
-0.031,0.25,0.898,-7.84,-1.4,0.07,0.261,-0.393,-1.314
-0.041,0.257,0.913,-2.38,-2.17,1.19,0.256,-0.391,-1.317
-0.045,0.239,0.94,2.66,-3.01,2.66,0.254,-0.396,-1.318
-0.039,0.226,0.965,2.87,-3.36,2.94,0.258,-0.392,-1.315
-0.021,0.244,0.969,-1.12,-4.06,0.98,0.257,-0.394,-1.307
-0.013,0.245,0.967,0.14,-4.55,1.26,0.255,-0.394,-1.308
-0.026,0.236,0.973,4.2,-5.6,3.08,0.254,-0.395,-1.312
-0.037,0.2,0.975,6.58,-6.16,3.22,0.258,-0.397,-1.308
-0.033,0.172,0.986,5.11,-6.51,3.08,0.252,-0.395,-1.31
-0.012,0.168,0.999,0.14,-5.39,2.38,0.256,-0.397,-1.312
0.012,0.223,1.009,-3.99,-5.04,1.12,0.255,-0.398,-1.314
-0.024,0.238,1.007,-1.61,-4.48,0.07,0.253,-0.399,-1.313
-0.047,0.226,1.006,0.77,-2.45,-0.98,0.248,-0.398,-1.319
-0.024,0.204,0.982,2.31,0.98,-2.66,0.253,-0.397,-1.311
-0.009,0.18,0.943,3.43,2.87,-3.15,0.255,-0.391,-1.311
-0.025,0.175,0.922,5.88,4.34,-4.48,0.257,-0.391,-1.311
-0.037,0.171,0.897,4.97,5.04,-6.79,0.256,-0.395,-1.314
-0.045,0.187,0.88,1.61,5.11,-9.52,0.261,-0.389,-1.308
-0.039,0.197,0.891,0.0,5.53,-11.13,0.262,-0.386,-1.304
0.002,0.22,0.905,-0.28,4.41,-12.25,0.263,-0.39,-1.311
-0.006,0.298,0.919,3.29,0.49,-15.4,0.266,-0.389,-1.308
-0.067,0.355,0.879,13.72,2.31,-18.9,0.263,-0.389,-1.309
-0.085,0.248,0.863,29.05,2.8,-19.74,0.269,-0.381,-1.312
-0.105,0.156,0.86,32.27,2.8,-17.99,0.272,-0.381,-1.308
-0.122,0.136,0.883,23.66,3.29,-18.69,0.27,-0.383,-1.314
-0.123,0.121,0.906,18.48,5.53,-17.5,0.274,-0.375,-1.313
-0.107,0.086,0.926,18.83,5.95,-14.42,0.277,-0.375,-1.315
-0.116,0.072,0.94,3.29,4.06,-17.57,0.279,-0.376,-1.312
-0.144,0.153,0.91,-11.41,4.13,-20.79,0.279,-0.37,-1.307
-0.161,0.308,0.905,-17.29,3.85,-28.0,0.28,-0.372,-1.315
-0.135,0.314,0.909,-6.16,3.01,-36.26,0.282,-0.372,-1.314
-0.106,0.252,0.95,11.13,1.26,-33.53,0.287,-0.371,-1.315
-0.101,0.171,0.955,20.02,-2.38,-29.26,0.286,-0.371,-1.319
-0.187,0.162,0.93,17.08,-4.2,-30.52,0.289,-0.369,-1.32
-0.264,0.168,0.932,13.16,-4.76,-33.39,0.292,-0.366,-1.317
-0.311,0.144,0.977,11.13,-3.43,-35.07,0.294,-0.365,-1.324
-0.299,0.144,0.993,3.36,0.14,-35.63,0.295,-0.357,-1.319
-0.259,0.182,0.983,-7.21,2.52,-39.34,0.295,-0.36,-1.315
-0.214,0.263,1.0,-10.5,-0.98,-42.42,0.303,-0.356,-1.315
-0.204,0.286,1.038,-9.38,-4.27,-44.17,0.306,-0.359,-1.317
-0.223,0.239,1.059,-7.91,-4.2,-45.15,0.304,-0.36,-1.318
-0.219,0.208,1.057,-12.88,-1.61,-42.84,0.307,-0.36,-1.307
-0.164,0.247,1.04,-23.94,3.22,-44.94,0.307,-0.359,-1.307
-0.08,0.344,0.962,-29.05,4.41,-47.46,0.312,-0.359,-1.31
-0.128,0.36,1.021,-13.65,-5.67,-47.11,0.317,-0.363,-1.305
-0.114,0.242,1.049,-6.3,-5.67,-45.29,0.318,-0.36,-1.301
-0.011,0.169,0.988,-13.51,-1.96,-46.97,0.319,-0.35,-1.307
0.082,0.211,0.952,-23.31,-4.69,-49.28,0.32,-0.359,-1.306
0.07,0.267,1.0,-19.04,-11.76,-47.67,0.325,-0.36,-1.305
0.035,0.28,1.106,-10.36,-7.84,-45.71,0.322,-0.358,-1.306
0.108,0.243,1.116,-13.72,1.05,-48.51,0.324,-0.363,-1.306
0.168,0.25,1.066,-16.24,5.39,-49.98,0.326,-0.361,-1.306
0.154,0.24,1.014,-13.23,2.8,-49.91,0.328,-0.394,-1.297
0.063,0.179,0.992,-8.96,0.49,-48.09,0.333,-0.363,-1.295
0.016,0.127,1.004,-14.63,5.04,-47.67,0.336,-0.357,-1.299
0.142,0.09,0.977,-35.7,20.44,-54.74,0.344,-0.363,-1.291
0.269,0.073,0.894,-45.64,21.63,-58.38,0.349,-0.363,-1.289
0.285,0.077,0.873,-49.84,12.6,-57.12,0.354,-0.364,-1.285
0.198,0.15,0.846,-51.59,5.53,-51.1,0.357,-0.367,-1.275
0.109,0.193,0.864,-48.58,4.06,-49.14,0.361,-0.37,-1.281
0.129,0.177,0.879,-43.26,10.15,-49.14,0.363,-0.375,-1.274
0.258,0.144,0.846,-46.97,14.42,-51.1,0.366,-0.374,-1.275
0.307,0.121,0.823,-51.66,9.66,-47.18,0.371,-0.377,-1.266
0.302,0.133,0.799,-55.16,3.92,-35.35,0.37,-0.38,-1.262
0.268,0.156,0.828,-57.89,-0.49,-25.83,0.373,-0.387,-1.266
0.252,0.16,0.821,-57.47,-1.4,-21.14,0.376,-0.388,-1.258
0.225,0.18,0.835,-56.28,-2.87,-15.19,0.375,-0.394,-1.258
0.225,0.173,0.87,-59.43,-4.41,-10.78,0.371,-0.397,-1.246
0.258,0.224,0.953,-64.26,-5.18,-5.18,0.371,-0.405,-1.239
0.262,0.313,0.983,-66.78,-6.58,-2.17,0.369,-0.414,-1.234
0.236,0.387,0.973,-63.7,-8.12,0.84,0.364,-0.415,-1.233
0.23,0.417,0.901,-59.43,-7.56,3.29,0.367,-0.421,-1.227
0.241,0.396,0.904,-53.55,-9.45,8.68,0.36,-0.428,-1.222
0.277,0.398,0.892,-38.15,-17.01,17.15,0.359,-0.431,-1.223
0.258,0.37,0.904,-25.76,-22.54,21.84,0.349,-0.434,-1.224
0.232,0.334,0.862,-24.57,-28.91,27.58,0.339,-0.439,-1.217
0.222,0.271,0.852,-31.71,-34.3,32.69,0.34,-0.435,-1.21
0.192,0.262,0.88,-35.63,-37.52,41.3,0.327,-0.445,-1.213
0.138,0.372,0.976,-30.03,-37.73,49.28,0.322,-0.445,-1.209
0.109,0.492,1.013,-22.47,-34.51,47.11,0.31,-0.451,-1.211
0.165,0.47,1.0,-21.14,-26.95,38.01,0.306,-0.449,-1.207
0.192,0.435,0.98,-27.16,-22.54,38.29,0.299,-0.451,-1.206
0.171,0.476,1.0,-31.57,-19.32,41.79,0.293,-0.455,-1.204
0.154,0.559,0.954,-25.97,-11.2,42.49,0.283,-0.452,-1.205
0.146,0.588,0.983,-11.27,-6.37,40.81,0.275,-0.455,-1.196
0.151,0.517,1.0,2.1,-2.87,36.61,0.272,-0.457,-1.197
0.13,0.511,0.982,5.11,1.75,30.73,0.265,-0.458,-1.2
0.092,0.534,0.91,10.01,2.17,29.05,0.265,-0.452,-1.202
0.063,0.537,0.874,19.6,0.7,29.96,0.258,-0.454,-1.2
0.094,0.451,0.833,26.74,-0.63,28.21,0.253,-0.45,-1.206
0.106,0.358,0.836,27.23,-6.09,29.82,0.252,-0.449,-1.21
0.053,0.334,0.827,15.68,-14.77,31.57,0.242,-0.45,-1.212
-0.027,0.338,0.868,9.59,-22.26,32.13,0.237,-0.448,-1.207
-0.09,0.356,0.89,4.55,-27.44,30.1,0.235,-0.441,-1.202
-0.082,0.369,0.899,-7.7,-28.56,27.3,0.227,-0.442,-1.207
-0.076,0.41,0.845,-30.59,-33.04,24.78,0.222,-0.445,-1.207
-0.066,0.486,0.793,-48.37,-36.68,24.01,0.21,-0.443,-1.191
-0.045,0.538,0.782,-56.77,-43.05,23.45,0.207,-0.447,-1.189
-0.045,0.797,1.055,-48.23,-44.31,17.15,0.197,-0.451,-1.184
0.006,1.205,1.422,-21.63,-35.21,3.15,0.192,-0.449,-1.183
-0.013,1.177,1.301,-4.9,-25.2,-19.67,0.191,-0.455,-1.172
-0.073,0.78,1.304,26.67,-28.56,-15.61,0.19,-0.448,-1.175
-0.084,0.521,1.144,12.04,-14.35,-6.02,0.188,-0.453,-1.177
-0.09,0.451,0.953,-19.32,-6.3,-1.12,0.187,-0.449,-1.169
-0.114,0.488,0.685,-43.33,-3.29,-4.06,0.189,-0.455,-1.169
-0.122,0.437,0.602,-45.22,0.63,0.7,0.189,-0.458,-1.168
-0.142,0.577,0.617,-43.61,0.7,13.72,0.189,-0.459,-1.164
-0.174,0.727,0.685,-34.37,3.85,17.99,0.189,-0.461,-1.154
-0.214,0.775,0.744,-19.81,6.44,19.18,0.184,-0.462,-1.157
-0.224,0.767,0.767,-8.68,9.59,17.36,0.183,-0.461,-1.157
-0.197,0.733,0.794,7.21,11.48,10.01,0.188,-0.468,-1.157
-0.138,0.551,0.825,8.4,8.61,12.67,0.189,-0.465,-1.157
-0.137,0.55,0.831,-4.69,4.9,14.49,0.186,-0.466,-1.158
-0.154,0.594,0.82,-21.28,0.0,12.32,0.186,-0.468,-1.158
-0.168,0.614,0.776,-30.17,1.4,6.79,0.183,-0.47,-1.153
-0.14,0.64,0.738,-38.43,1.75,1.4,0.18,-0.469,-1.147
-0.13,0.663,0.703,-42.98,-2.1,-0.49,0.177,-0.467,-1.144
-0.138,0.761,0.676,-40.95,-3.15,1.26,0.181,-0.476,-1.139
-0.146,0.776,0.696,-31.78,-5.6,0.98,0.178,-0.476,-1.133
-0.185,0.74,0.727,-20.16,-6.09,3.5,0.176,-0.481,-1.132
-0.229,0.75,0.723,-11.69,-4.2,5.81,0.176,-0.482,-1.132
-0.233,0.767,0.694,-4.9,-2.1,3.57,0.177,-0.481,-1.127
-0.206,0.763,0.675,10.15,0.56,1.26,0.177,-0.478,-1.13
-0.179,0.746,0.669,20.16,1.68,0.56,0.18,-0.481,-1.136
-0.164,0.719,0.669,28.28,1.75,-0.28,0.179,-0.472,-1.137
-0.154,0.675,0.696,32.55,0.49,-1.26,0.177,-0.477,-1.138
-0.152,0.633,0.707,31.5,0.35,-1.54,0.18,-0.47,-1.145
-0.143,0.65,0.727,26.6,0.28,0.42,0.179,-0.468,-1.155
-0.136,0.677,0.727,25.34,0.21,0.91,0.179,-0.468,-1.156
-0.121,0.668,0.747,28.07,-0.14,1.47,0.179,-0.465,-1.157
-0.112,0.641,0.754,29.33,-1.12,2.8,0.178,-0.46,-1.148
-0.116,0.62,0.748,28.63,-2.03,3.43,0.179,-0.461,-1.163
-0.117,0.625,0.731,24.08,-5.53,1.12,0.178,-0.461,-1.17
-0.118,0.636,0.746,23.03,-8.75,-0.84,0.176,-0.461,-1.171
-0.114,0.627,0.759,23.52,-11.9,-3.22,0.177,-0.456,-1.169
-0.114,0.611,0.786,24.22,-14.42,-4.48,0.177,-0.452,-1.17
-0.116,0.574,0.789,22.61,-16.73,-4.9,0.175,-0.452,-1.17
-0.123,0.494,0.788,14.7,-18.06,-3.78,0.176,-0.452,-1.173
-0.126,0.467,0.798,1.82,-19.74,-1.12,0.175,-0.453,-1.176
-0.129,0.477,0.82,-13.51,-20.58,2.45,0.175,-0.456,-1.172
-0.141,0.53,0.799,-26.11,-20.72,6.3,0.173,-0.458,-1.174
-0.162,0.589,0.787,-31.92,-21.42,10.15,0.165,-0.458,-1.172
-0.188,0.642,0.796,-36.47,-23.24,14.35,0.17,-0.462,-1.161
-0.262,0.707,0.832,-40.18,-22.54,15.68,0.166,-0.466,-1.16
-0.309,0.768,0.926,-44.24,-18.48,14.07,0.161,-0.468,-1.16
-0.255,0.714,0.884,-48.86,-11.41,12.74,0.16,-0.468,-1.148
-0.189,0.748,0.783,-52.29,-9.87,16.1,0.16,-0.474,-1.144
-0.18,0.76,0.707,-42.77,-10.85,8.33,0.158,-0.477,-1.139
-0.197,0.658,0.629,-14.7,-6.93,-6.65,0.156,-0.476,-1.138
-0.225,0.567,0.65,-7.0,-7.84,-0.07,0.154,-0.478,-1.136
-0.244,0.582,0.634,-7.98,-7.7,3.57,0.152,-0.48,-1.134
-0.248,0.602,0.609,-10.29,-9.73,0.63,0.15,-0.48,-1.135
-0.248,0.6,0.583,-11.06,-12.46,-1.12,0.156,-0.487,-1.136
-0.26,0.625,0.579,-9.1,-13.51,0.91,0.151,-0.485,-1.132
-0.308,0.688,0.605,-2.59,-14.98,0.56,0.153,-0.486,-1.132
-0.329,0.716,0.645,1.68,-12.95,0.21,0.151,-0.484,-1.135
-0.323,0.721,0.688,4.9,-7.56,0.7,0.151,-0.486,-1.138
-0.284,0.722,0.724,5.39,-2.73,1.05,0.15,-0.48,-1.133
-0.242,0.701,0.715,1.33,1.33,0.77,0.151,-0.484,-1.139
-0.216,0.716,0.717,-1.12,1.26,2.03,0.148,-0.484,-1.13
-0.207,0.737,0.747,1.82,3.43,-1.89,0.148,-0.482,-1.133
-0.216,0.801,0.817,5.95,5.95,-3.43,0.145,-0.478,-1.13
-0.198,0.74,0.837,8.68,9.45,-6.16,0.148,-0.477,-1.131
-0.141,0.677,0.807,2.87,11.06,-2.8,0.154,-0.479,-1.131
-0.125,0.65,0.699,-11.13,11.76,-5.18,0.157,-0.482,-1.136
-0.171,0.607,0.618,-10.43,4.34,-10.36,0.162,-0.488,-1.132
-0.212,0.579,0.631,-8.75,1.4,-8.68,0.158,-0.486,-1.136
-0.227,0.578,0.624,-13.65,2.38,-5.32,0.16,-0.486,-1.132
-0.228,0.593,0.599,-22.89,2.45,-5.74,0.164,-0.492,-1.132
-0.24,0.635,0.592,-29.12,0.98,-6.44,0.167,-0.491,-1.131
-0.269,0.735,0.593,-29.47,-0.35,-9.03,0.164,-0.496,-1.122
-0.275,0.716,0.601,-25.2,0.77,-8.54,0.167,-0.493,-1.12
