ax,ay,az,gx,gy,gz,mx,my,mz
-0.287,0.554,0.807,-22.12,-9.87,10.57,0.117,-0.448,-1.16
-0.297,0.547,0.806,-30.73,-9.94,12.6,0.11,-0.451,-1.164
-0.309,0.539,0.848,-40.81,-11.06,13.16,0.108,-0.452,-1.158
-0.318,0.557,0.885,-52.64,-5.74,13.16,0.108,-0.459,-1.15
-0.254,0.708,0.843,-48.72,12.46,2.94,0.109,-0.459,-1.148
-0.106,0.705,0.719,-22.75,11.06,-14.28,0.101,-0.459,-1.142
-0.091,0.738,0.806,1.4,-5.39,-14.56,0.111,-0.467,-1.152
-0.202,0.492,0.75,22.33,-9.73,-20.93,0.105,-0.465,-1.153
-0.222,0.622,0.904,27.44,-14.63,-6.58,0.115,-0.467,-1.16
-0.149,0.534,0.859,34.72,0.91,-15.12,0.117,-0.461,-1.164
-0.106,0.517,0.879,19.74,-9.31,-1.54,0.118,-0.461,-1.165
-0.152,0.544,0.871,24.78,-10.43,5.6,0.123,-0.461,-1.166
-0.145,0.623,0.884,17.78,-9.66,2.87,0.121,-0.466,-1.168
-0.146,0.621,0.877,24.01,-8.19,-0.84,0.119,-0.463,-1.179
-0.162,0.566,0.89,36.12,-8.26,1.96,0.117,-0.468,-1.173
-0.178,0.512,0.904,43.12,-7.07,6.58,0.125,-0.463,-1.181
-0.186,0.453,0.931,43.82,-4.27,10.57,0.124,-0.461,-1.194
-0.176,0.417,0.938,40.18,-1.82,34.44,0.128,-0.461,-1.198
-0.168,0.419,0.95,27.93,-1.96,20.16,0.123,-0.458,-1.195
-0.186,0.446,0.946,19.04,-2.1,21.42,0.124,-0.456,-1.203
-0.217,0.486,0.95,14.28,-1.47,22.47,0.121,-0.458,-1.205
-0.236,0.517,0.944,12.95,-0.49,23.24,0.125,-0.456,-1.214
-0.243,0.519,0.95,14.98,2.24,23.87,0.126,-0.46,-1.216
-0.245,0.523,0.95,18.06,3.99,24.92,0.129,-0.46,-1.218
-0.255,0.527,0.966,24.43,5.88,25.55,0.126,-0.461,-1.221
-0.277,0.469,0.979,34.09,7.7,26.88,0.132,-0.456,-1.22
-0.28,0.414,0.981,33.67,9.87,27.86,0.136,-0.452,-1.228
-0.279,0.382,0.992,26.81,12.6,28.0,0.131,-0.456,-1.232
-0.273,0.379,0.993,16.66,14.84,26.88,0.136,-0.458,-1.239
-0.259,0.409,0.993,6.3,17.15,24.43,0.135,-0.454,-1.243
-0.246,0.465,0.973,7.49,18.76,23.8,0.137,-0.457,-1.24
-0.249,0.467,0.967,13.3,19.95,23.24,0.134,-0.459,-1.248
-0.258,0.435,0.963,18.2,21.49,22.82,0.135,-0.457,-1.246
-0.259,0.401,0.971,19.81,23.45,22.68,0.143,-0.453,-1.252
-0.254,0.389,0.982,18.13,25.69,21.63,0.144,-0.457,-1.248
-0.248,0.384,0.999,15.54,29.12,18.27,0.151,-0.454,-1.253
-0.228,0.374,0.987,16.1,31.99,15.75,0.151,-0.455,-1.257
-0.206,0.369,0.996,18.41,33.11,14.07,0.149,-0.454,-1.263
-0.189,0.368,1.031,22.75,33.67,12.25,0.155,-0.451,-1.264
-0.2,0.355,1.056,26.88,34.09,11.13,0.16,-0.446,-1.26
-0.229,0.341,1.065,29.33,35.07,10.08,0.167,-0.451,-1.264
-0.244,0.325,1.076,25.83,37.03,10.57,0.164,-0.443,-1.267
-0.242,0.349,1.078,20.02,39.83,11.2,0.17,-0.443,-1.274
-0.244,0.386,1.096,16.8,42.14,9.1,0.176,-0.442,-1.278
-0.28,0.404,1.114,16.03,42.49,6.23,0.18,-0.442,-1.276
-0.319,0.414,1.128,16.45,43.75,6.86,0.186,-0.44,-1.28
-0.347,0.417,1.114,17.64,49.139,7.07,0.195,-0.435,-1.278
-0.358,0.418,1.096,16.59,50.26,5.18,0.196,-0.434,-1.28
-0.398,0.44,1.074,13.93,50.399,3.15,0.203,-0.436,-1.283
-0.455,0.466,1.036,13.37,50.05,3.01,0.209,-0.437,-1.288
-0.506,0.492,0.979,14.7,49.56,3.85,0.215,-0.434,-1.282
-0.545,0.503,0.939,13.37,49.139,3.78,0.219,-0.432,-1.283
-0.576,0.529,0.909,10.71,48.09,5.6,0.223,-0.434,-1.283
-0.576,0.559,0.877,10.5,46.27,7.07,0.231,-0.43,-1.28
-0.562,0.564,0.846,13.93,44.73,6.65,0.233,-0.431,-1.285
-0.543,0.527,0.81,17.22,40.32,6.79,0.243,-0.434,-1.285
-0.516,0.487,0.817,18.9,35.28,9.1,0.247,-0.428,-1.289
-0.465,0.485,0.867,19.39,33.67,9.38,0.246,-0.426,-1.291
-0.345,0.488,0.88,23.87,30.52,5.11,0.254,-0.425,-1.288
-0.281,0.454,0.872,35.63,22.96,4.06,0.257,-0.422,-1.293
-0.221,0.371,0.867,46.69,15.19,3.64,0.257,-0.419,-1.292
-0.19,0.31,0.851,45.64,7.84,3.71,0.266,-0.407,-1.302
-0.24,0.328,0.883,31.36,1.82,2.73,0.266,-0.408,-1.305
-0.303,0.317,0.942,16.59,0.21,-2.73,0.265,-0.404,-1.302
-0.28,0.246,0.947,16.31,12.46,-10.57,0.267,-0.403,-1.308
-0.159,0.144,0.903,20.86,19.67,-7.7,0.269,-0.402,-1.305
-0.067,0.062,0.878,21.84,18.13,-1.61,0.272,-0.401,-1.31
-0.052,0.038,0.853,12.39,13.86,0.77,0.269,-0.398,-1.313
-0.097,0.06,0.844,-1.96,10.29,3.08,0.271,-0.392,-1.309
-0.132,0.129,0.828,-15.12,11.27,8.61,0.272,-0.395,-1.308
-0.088,0.203,0.752,-17.78,14.56,10.85,0.277,-0.405,-1.309
-0.07,0.229,0.748,-8.89,12.88,9.1,0.275,-0.403,-1.304
-0.065,0.205,0.742,-1.19,11.48,8.12,0.271,-0.407,-1.305
-0.053,0.178,0.738,2.31,9.52,10.64,0.276,-0.402,-1.304
-0.031,0.178,0.73,3.15,7.7,11.9,0.274,-0.406,-1.302
-0.021,0.197,0.728,9.31,4.41,14.91,0.274,-0.401,-1.305
-0.038,0.202,0.738,16.03,1.47,16.59,0.275,-0.402,-1.303
-0.056,0.183,0.766,20.44,0.42,16.03,0.276,-0.402,-1.305
-0.057,0.159,0.784,18.55,0.42,14.14,0.277,-0.399,-1.316
-0.045,0.146,0.788,12.18,0.84,15.05,0.272,-0.397,-1.306
-0.037,0.152,0.789,4.27,-0.77,15.33,0.273,-0.394,-1.31
-0.022,0.202,0.828,-3.92,-2.24,14.7,0.271,-0.395,-1.309
-0.012,0.261,0.84,-3.22,-1.75,14.21,0.272,-0.4,-1.315
-0.016,0.285,0.834,4.62,-1.75,14.28,0.271,-0.399,-1.311
-0.029,0.248,0.851,15.75,-3.01,15.68,0.267,-0.398,-1.309
-0.041,0.201,0.883,19.46,-4.69,16.87,0.267,-0.4,-1.311
-0.036,0.202,0.897,12.18,-3.92,14.7,0.265,-0.392,-1.307
-0.033,0.23,0.893,5.67,-3.08,10.29,0.264,-0.394,-1.311
-0.051,0.256,0.896,10.43,-2.94,8.75,0.262,-0.393,-1.312
-0.062,0.229,0.895,15.12,-1.54,6.72,0.263,-0.389,-1.317
-0.039,0.186,0.896,15.19,0.14,3.99,0.26,-0.391,-1.321
-0.011,0.161,0.902,10.85,1.19,2.87,0.263,-0.391,-1.316
-0.009,0.179,0.899,6.3,0.49,2.73,0.263,-0.387,-1.316
-0.022,0.165,0.9,4.06,-1.05,2.59,0.262,-0.387,-1.316
-0.022,0.155,0.868,0.98,-0.42,2.59,0.263,-0.387,-1.311
-0.026,0.167,0.874,-0.98,-1.89,2.31,0.266,-0.386,-1.314
-0.028,0.182,0.88,-3.99,-2.8,2.17,0.264,-0.385,-1.312
-0.01,0.216,0.893,-4.69,-3.08,2.31,0.26,-0.387,-1.312
0.0,0.227,0.912,-1.4,-3.85,2.24,0.261,-0.386,-1.313
-0.01,0.223,0.965,5.32,-5.25,4.06,0.261,-0.385,-1.312
-0.039,0.209,0.961,4.97,-5.67,4.06,0.263,-0.393,-1.318
-0.036,0.208,0.949,0.91,-4.83,3.15,0.263,-0.39,-1.314
-0.033,0.209,0.953,0.91,-4.76,4.06,0.26,-0.389,-1.316
-0.032,0.176,0.958,3.57,-5.67,3.36,0.26,-0.386,-1.321
-0.039,0.154,0.974,0.56,-5.6,4.41,0.259,-0.389,-1.323
-0.04,0.193,0.974,-4.06,-5.18,3.43,0.259,-0.388,-1.316
-0.032,0.209,0.979,-3.78,-5.67,2.94,0.259,-0.397,-1.313
-0.029,0.222,0.99,-1.26,-6.3,3.71,0.261,-0.394,-1.314
-0.027,0.207,1.0,0.0,-6.79,3.15,0.253,-0.39,-1.314
-0.029,0.208,1.011,0.49,-6.65,3.15,0.26,-0.39,-1.315
-0.055,0.219,1.022,0.63,-5.88,2.38,0.253,-0.388,-1.316
-0.078,0.213,1.022,0.21,-4.9,0.77,0.255,-0.39,-1.318
-0.083,0.216,1.03,-1.05,-3.22,-0.07,0.255,-0.39,-1.319
-0.074,0.233,1.023,-3.64,-2.1,-2.52,0.254,-0.389,-1.321
-0.064,0.243,1.019,-4.55,-1.4,-4.9,0.25,-0.391,-1.319
-0.062,0.231,1.012,-3.36,-1.82,-5.32,0.249,-0.394,-1.32
-0.055,0.171,0.938,-0.07,-4.27,-4.62,0.249,-0.389,-1.315
-0.043,0.167,0.971,-0.28,-4.48,-6.16,0.253,-0.392,-1.318
-0.041,0.175,0.971,-1.61,-4.48,-5.74,0.253,-0.389,-1.32
-0.04,0.181,0.976,-1.68,-5.6,-4.13,0.254,-0.389,-1.32
-0.042,0.181,0.977,-2.73,-5.88,-3.01,0.251,-0.389,-1.317
-0.042,0.185,0.994,-5.25,-6.02,-2.1,0.25,-0.389,-1.316
-0.05,0.201,1.0,-7.0,-5.6,-1.19,0.251,-0.391,-1.314
-0.043,0.204,0.999,-8.26,-4.62,-1.82,0.253,-0.395,-1.321
-0.035,0.215,0.999,-7.91,-4.27,-2.17,0.257,-0.392,-1.318
-0.037,0.227,0.99,-6.79,-4.2,-2.31,0.25,-0.395,-1.313
-0.031,0.224,0.997,-3.36,-4.34,-1.54,0.251,-0.395,-1.318
-0.031,0.206,0.988,-1.05,-4.48,-1.26,0.251,-0.39,-1.323
-0.035,0.192,0.989,0.84,-4.41,0.42,0.251,-0.393,-1.32
-0.039,0.2,0.99,0.28,-3.92,0.56,0.253,-0.391,-1.312
-0.063,0.22,0.995,1.19,-3.71,1.61,0.252,-0.39,-1.315
-0.067,0.222,0.99,3.22,-2.59,0.07,0.252,-0.39,-1.313
-0.05,0.212,0.985,4.62,-1.47,-2.1,0.254,-0.391,-1.307
-0.05,0.215,0.969,4.69,-0.14,-3.78,0.252,-0.394,-1.307
-0.054,0.212,0.945,6.16,0.63,-5.6,0.257,-0.393,-1.311
-0.049,0.184,0.935,8.19,-0.14,-6.65,0.252,-0.394,-1.312
-0.036,0.173,0.936,7.56,-0.49,-6.16,0.243,-0.388,-1.317
-0.035,0.173,0.92,4.69,-0.42,-5.74,0.252,-0.389,-1.315
-0.041,0.189,0.919,3.64,-1.19,-4.97,0.252,-0.387,-1.313
-0.038,0.19,0.92,3.85,-1.26,-4.9,0.251,-0.386,-1.321
-0.027,0.181,0.937,3.78,-1.33,-4.83,0.256,-0.387,-1.316
-0.034,0.177,0.937,2.66,-1.47,-4.76,0.258,-0.391,-1.308
-0.036,0.17,0.925,1.4,-1.12,-4.55,0.259,-0.385,-1.319
-0.035,0.161,0.913,0.77,-0.63,-4.76,0.26,-0.388,-1.311
-0.039,0.158,0.908,0.28,-1.19,-4.48,0.256,-0.392,-1.318
-0.039,0.169,0.909,-0.35,-1.82,-4.62,0.262,-0.395,-1.314
-0.041,0.199,0.91,0.21,-2.24,-4.62,0.259,-0.391,-1.311
-0.042,0.199,0.903,3.36,-2.24,-4.69,0.253,-0.39,-1.311
-0.059,0.175,0.894,6.79,-2.87,-4.62,0.259,-0.392,-1.316
-0.08,0.165,0.893,8.4,-3.01,-3.5,0.26,-0.391,-1.315
-0.093,0.157,0.89,8.26,-3.01,-3.29,0.257,-0.383,-1.317
-0.101,0.154,0.901,9.24,-3.08,-2.38,0.26,-0.384,-1.314
-0.103,0.161,0.895,9.45,-2.59,-2.45,0.259,-0.385,-1.321
-0.104,0.17,0.872,9.31,-1.89,-4.41,0.259,-0.381,-1.32
-0.108,0.169,0.852,9.1,-1.47,-5.88,0.261,-0.381,-1.32
-0.091,0.166,0.859,8.12,-0.77,-7.21,0.262,-0.377,-1.324
-0.072,0.152,0.861,7.21,-2.8,-8.4,0.262,-0.38,-1.318
-0.06,0.156,0.883,3.22,-3.5,-9.17,0.26,-0.38,-1.31
-0.049,0.17,0.897,2.52,-3.85,-10.5,0.257,-0.377,-1.324
-0.026,0.172,0.905,5.74,-5.25,-10.22,0.257,-0.377,-1.319
-0.023,0.189,0.916,9.1,-7.14,-9.24,0.261,-0.376,-1.319
-0.028,0.208,0.922,13.09,-8.61,-8.33,0.258,-0.371,-1.318
-0.023,0.214,0.948,18.48,-9.52,-7.21,0.26,-0.371,-1.316
-0.022,0.171,0.964,23.8,-10.01,-7.07,0.261,-0.373,-1.322
-0.023,0.117,0.983,27.23,-8.82,-6.23,0.26,-0.368,-1.331
-0.044,0.088,0.997,25.97,-7.49,-5.67,0.259,-0.364,-1.33
-0.048,0.076,0.989,22.54,-5.46,-5.46,0.258,-0.365,-1.328
-0.032,0.074,0.978,12.88,-3.15,-7.77,0.257,-0.359,-1.327
-0.057,0.101,0.952,6.72,-3.08,-7.07,0.257,-0.359,-1.323
-0.092,0.139,0.945,3.29,-2.38,-7.49,0.255,-0.358,-1.334
-0.111,0.152,0.93,3.85,-2.1,-10.08,0.259,-0.359,-1.33
-0.114,0.125,0.919,6.86,-1.68,-11.83,0.261,-0.354,-1.333
-0.114,0.11,0.918,8.4,-2.8,-11.27,0.261,-0.351,-1.329
-0.113,0.117,0.949,6.09,-3.29,-11.97,0.264,-0.351,-1.329
-0.126,0.14,0.932,6.02,-4.13,-11.2,0.261,-0.353,-1.336
-0.146,0.141,0.925,8.68,-5.81,-11.55,0.257,-0.351,-1.335
-0.149,0.12,0.932,12.39,-7.49,-10.01,0.256,-0.346,-1.339
-0.149,0.121,0.944,13.23,-9.24,-7.63,0.257,-0.347,-1.333
-0.161,0.119,0.98,14.0,-10.57,-5.46,0.257,-0.347,-1.337
-0.179,0.124,1.028,15.47,-10.92,-4.83,0.257,-0.347,-1.339
-0.151,0.087,1.056,17.15,-10.29,-4.62,0.258,-0.338,-1.341
-0.127,0.05,1.095,16.73,-11.62,-3.43,0.251,-0.334,-1.344
-0.146,0.052,1.121,13.51,-12.81,-0.21,0.254,-0.333,-1.345
-0.181,0.089,1.15,8.61,-12.67,1.4,0.252,-0.336,-1.339
-0.206,0.11,1.15,3.78,-10.71,0.35,0.251,-0.334,-1.338
-0.21,0.134,1.153,0.91,-10.01,1.12,0.252,-0.335,-1.34
-0.234,0.186,1.177,-2.31,-9.31,-0.42,0.253,-0.332,-1.344
-0.265,0.227,1.166,-3.92,-7.14,-2.31,0.248,-0.332,-1.344
-0.257,0.227,1.142,-1.61,-5.11,-4.62,0.246,-0.334,-1.341
-0.239,0.216,1.116,-3.57,-3.92,-8.89,0.246,-0.332,-1.34
-0.234,0.191,1.099,-5.46,-4.2,-11.34,0.245,-0.332,-1.345
-0.284,0.206,1.103,-4.41,-6.02,-10.78,0.246,-0.332,-1.338
-0.313,0.214,1.11,-1.68,-5.11,-11.62,0.248,-0.333,-1.345
-0.315,0.213,1.098,-0.49,-3.08,-13.51,0.248,-0.336,-1.341
-0.287,0.208,1.079,-2.8,-1.61,-17.36,0.248,-0.337,-1.346
-0.26,0.214,1.074,-7.56,-1.26,-21.07,0.245,-0.335,-1.341
-0.256,0.225,1.066,-8.61,-1.26,-22.82,0.245,-0.334,-1.341
-0.263,0.25,1.064,-1.61,0.28,-21.56,0.253,-0.336,-1.34
-0.266,0.219,1.051,15.4,3.08,-23.17,0.249,-0.332,-1.341
-0.259,0.128,1.033,23.31,5.6,-23.45,0.254,-0.327,-1.345
-0.2,0.049,1.029,23.94,8.4,-21.07,0.255,-0.326,-1.336
-0.15,0.015,1.026,14.7,9.03,-21.0,0.26,-0.323,-1.344
-0.149,0.047,1.015,3.85,8.75,-20.3,0.267,-0.323,-1.345
-0.134,0.106,1.015,2.52,10.36,-20.65,0.264,-0.32,-1.338
-0.093,0.095,1.01,5.11,10.92,-21.0,0.269,-0.318,-1.342
-0.088,0.068,0.991,4.97,9.87,-19.6,0.271,-0.317,-1.349
-0.112,0.051,0.971,-0.42,10.85,-19.18,0.268,-0.319,-1.345
-0.075,0.02,0.945,-6.37,13.16,-22.12,0.277,-0.319,-1.339
0.02,0.023,0.962,-11.41,12.6,-27.58,0.273,-0.319,-1.339
0.055,0.064,0.949,-13.23,7.98,-29.33,0.275,-0.32,-1.34
0.015,0.122,0.969,-5.39,5.74,-30.38,0.279,-0.323,-1.336
0.012,0.108,0.964,3.36,5.95,-36.19,0.283,-0.324,-1.337
0.02,0.047,0.931,9.66,7.07,-40.81,0.286,-0.317,-1.336
0.039,-0.014,0.903,10.22,8.68,-41.72,0.286,-0.317,-1.333
0.101,-0.051,0.879,8.96,9.8,-42.77,0.291,-0.314,-1.338
0.139,-0.042,0.862,2.8,7.14,-46.76,0.29,-0.313,-1.333
0.047,0.001,0.849,2.87,5.67,-46.27,0.296,-0.311,-1.338
-0.02,0.012,0.858,6.02,6.79,-45.15,0.295,-0.304,-1.337
-0.042,-0.018,0.828,4.48,9.73,-48.93,0.296,-0.3,-1.333
-0.007,-0.076,0.792,-2.03,12.81,-51.87,0.304,-0.298,-1.327
0.08,-0.141,0.755,-11.2,14.7,-47.25,0.309,-0.301,-1.327
0.177,-0.095,0.786,-31.43,10.92,-46.62,0.315,-0.301,-1.323
0.112,-0.034,0.815,-41.65,5.81,-46.83,0.313,-0.306,-1.324
0.041,0.022,0.834,-41.37,4.76,-42.42,0.318,-0.309,-1.324
0.04,0.028,0.847,-39.27,6.44,-41.79,0.322,-0.314,-1.323
0.111,-0.016,0.849,-40.32,8.82,-41.51,0.323,-0.311,-1.32
0.191,-0.126,0.857,-39.27,4.41,-32.34,0.321,-0.315,-1.315
0.156,-0.131,0.874,-43.61,1.54,-23.66,0.322,-0.318,-1.313
0.146,-0.117,0.892,-54.04,0.28,-21.84,0.323,-0.325,-1.312
0.2,-0.1,0.924,-65.17,0.91,-20.79,0.322,-0.327,-1.306
0.212,-0.054,0.876,-72.38,-0.42,-10.01,0.326,-0.333,-1.303
0.183,-0.012,0.826,-61.6,-6.23,-3.36,0.317,-0.347,-1.294
0.168,0.001,0.83,-60.62,-11.62,0.14,0.319,-0.348,-1.298
0.192,0.048,0.856,-66.85,-15.54,5.11,0.315,-0.359,-1.291
0.232,0.11,0.904,-70.0,-19.6,13.93,0.311,-0.362,-1.291
0.195,0.14,0.926,-64.75,-25.9,22.47,0.304,-0.377,-1.285
0.106,0.123,0.93,-58.17,-33.81,34.3,0.299,-0.384,-1.281
0.036,0.168,0.967,-65.73,-35.28,39.55,0.292,-0.386,-1.281
0.039,0.273,1.023,-74.83,-34.37,37.94,0.285,-0.395,-1.27
0.003,0.406,1.049,-73.08,-31.92,35.91,0.276,-0.404,-1.266
-0.055,0.513,1.061,-58.1,-28.21,35.98,0.264,-0.409,-1.257
-0.071,0.489,1.054,-43.33,-22.82,35.21,0.253,-0.411,-1.254
-0.049,0.482,1.031,-44.66,-12.32,38.43,0.251,-0.415,-1.249
-0.035,0.554,1.05,-50.12,-5.74,35.42,0.24,-0.419,-1.251
0.021,0.563,1.057,-52.64,-4.83,26.39,0.24,-0.42,-1.243
0.088,0.545,1.093,-51.17,-4.83,19.46,0.231,-0.43,-1.239
0.125,0.556,1.08,-49.98,-6.23,14.63,0.228,-0.43,-1.227
0.102,0.576,1.049,-37.24,-9.8,10.5,0.225,-0.436,-1.224
0.04,0.605,1.038,-25.2,-9.17,9.87,0.221,-0.439,-1.216
0.045,0.6,1.017,-15.75,-8.47,6.51,0.216,-0.434,-1.224
0.086,0.576,0.981,-11.62,-9.1,0.77,0.214,-0.436,-1.22
0.1,0.553,0.937,-7.56,-13.72,-0.98,0.211,-0.436,-1.22
0.066,0.521,0.927,6.16,-22.61,3.43,0.209,-0.434,-1.224
-0.027,0.44,0.986,11.9,-25.2,6.79,0.209,-0.435,-1.222
-0.077,0.431,0.992,8.47,-24.22,10.43,0.2,-0.434,-1.22
-0.104,0.416,0.998,3.22,-21.42,9.94,0.202,-0.434,-1.225
-0.095,0.507,1.014,-2.03,-18.9,6.02,0.191,-0.428,-1.226
-0.136,0.51,1.0,2.03,-17.22,6.65,0.194,-0.432,-1.225
-0.2,0.667,0.953,19.81,-21.21,14.49,0.19,-0.429,-1.222
-0.295,0.666,0.876,27.09,-24.92,22.54,0.19,-0.428,-1.231
-0.278,0.646,0.856,41.65,-15.19,22.75,0.186,-0.425,-1.23
-0.195,0.547,0.835,44.59,-9.1,4.76,0.183,-0.424,-1.234
-0.141,0.5,0.884,41.65,-13.72,-4.34,0.181,-0.419,-1.232
-0.167,0.515,0.939,36.68,-22.47,-1.54,0.178,-0.406,-1.24
-0.22,0.552,0.982,35.56,-21.84,-1.12,0.175,-0.407,-1.237
-0.217,0.486,0.995,35.14,-15.47,-5.32,0.175,-0.405,-1.243
-0.179,0.414,0.976,29.19,-6.58,-9.1,0.174,-0.403,-1.24
-0.148,0.393,0.939,22.33,-2.8,-9.87,0.176,-0.4,-1.246
-0.147,0.382,0.92,18.13,-3.08,-7.91,0.177,-0.401,-1.251
-0.171,0.367,0.894,12.88,-3.85,-4.97,0.178,-0.398,-1.25
-0.182,0.367,0.89,10.78,-3.57,-2.94,0.176,-0.395,-1.246
-0.185,0.365,0.888,8.19,-2.73,-2.1,0.177,-0.397,-1.248
-0.182,0.356,0.897,5.88,-3.08,-1.19,0.179,-0.393,-1.251
-0.181,0.361,0.902,3.15,-4.34,0.7,0.176,-0.395,-1.258
-0.182,0.365,0.901,0.28,-6.79,3.29,0.179,-0.392,-1.252
-0.175,0.369,0.885,-1.19,-7.98,4.62,0.178,-0.397,-1.25
-0.171,0.365,0.867,-1.68,-11.27,6.02,0.171,-0.396,-1.251
-0.163,0.34,0.869,-1.26,-14.77,8.68,0.17,-0.396,-1.252
-0.144,0.326,0.856,-4.06,-17.99,12.39,0.165,-0.395,-1.254
-0.139,0.355,0.866,-5.95,-23.45,17.43,0.165,-0.398,-1.255
-0.163,0.386,0.882,-4.83,-30.17,23.24,0.158,-0.399,-1.252
-0.234,0.426,0.917,-5.25,-36.68,31.85,0.155,-0.394,-1.25
-0.267,0.411,0.947,-7.28,-39.48,32.27,0.15,-0.393,-1.253
-0.288,0.396,0.972,-14.14,-36.61,30.38,0.14,-0.395,-1.249
-0.322,0.457,0.905,-19.95,-34.09,31.08,0.139,-0.399,-1.25
-0.346,0.484,0.886,-18.27,-33.11,24.5,0.13,-0.393,-1.242
-0.359,0.494,0.868,-9.03,-23.52,15.12,0.131,-0.399,-1.243
-0.351,0.481,0.865,-1.75,-16.45,8.68,0.128,-0.399,-1.241
-0.333,0.45,0.869,3.92,-11.76,4.41,0.126,-0.396,-1.243
-0.316,0.403,0.883,4.69,-9.17,1.89,0.122,-0.397,-1.241
-0.307,0.395,0.861,1.61,-8.89,0.14,0.121,-0.396,-1.241
-0.308,0.388,0.864,0.98,-9.52,-0.14,0.121,-0.4,-1.239
-0.307,0.396,0.87,-0.42,-6.93,2.52,0.123,-0.397,-1.241
-0.299,0.419,0.851,-1.54,-6.72,4.27,0.119,-0.398,-1.232
-0.286,0.456,0.844,1.19,-8.61,4.62,0.118,-0.395,-1.234
-0.294,0.432,0.84,4.41,-10.78,3.78,0.117,-0.397,-1.242
-0.305,0.404,0.857,5.67,-11.83,4.13,0.119,-0.398,-1.236
-0.314,0.365,0.871,2.94,-11.69,3.5,0.119,-0.396,-1.24
-0.321,0.345,0.869,-1.68,-11.27,2.38,0.116,-0.394,-1.234
-0.327,0.368,0.874,-7.84,-9.94,1.47,0.115,-0.398,-1.236
-0.332,0.424,0.859,-8.75,-9.17,1.12,0.112,-0.395,-1.238
-0.331,0.448,0.844,-7.28,-7.91,0.42,0.113,-0.401,-1.233
-0.328,0.445,0.83,-4.13,-6.58,0.0,0.111,-0.401,-1.24
-0.325,0.441,0.828,0.07,-6.51,0.42,0.11,-0.398,-1.242
-0.329,0.432,0.833,2.73,-7.0,0.21,0.107,-0.395,-1.233
-0.331,0.42,0.839,4.13,-6.93,0.07,0.111,-0.4,-1.233
-0.335,0.404,0.853,4.34,-8.4,2.03,0.108,-0.399,-1.231
-0.332,0.424,0.888,1.82,-10.99,6.3,0.112,-0.398,-1.231
-0.338,0.382,0.859,1.33,-5.32,1.61,0.108,-0.395,-1.234
-0.329,0.375,0.863,-0.35,-6.86,3.29,0.104,-0.399,-1.24
-0.34,0.378,0.854,-3.92,-9.38,4.41,0.103,-0.398,-1.24
-0.351,0.389,0.841,-5.11,-10.36,6.09,0.103,-0.396,-1.236
-0.364,0.402,0.84,-6.23,-9.87,6.44,0.104,-0.397,-1.235
-0.373,0.409,0.839,-7.63,-9.8,6.16,0.104,-0.4,-1.236
-0.383,0.429,0.832,-7.35,-8.89,5.81,0.102,-0.397,-1.233
-0.388,0.438,0.833,-4.9,-7.84,5.39,0.106,-0.393,-1.233
-0.392,0.426,0.833,-2.94,-5.81,4.55,0.097,-0.4,-1.228
-0.391,0.419,0.835,-1.68,-3.43,3.57,0.097,-0.399,-1.228
-0.39,0.428,0.834,-0.42,-1.05,1.26,0.102,-0.398,-1.233
-0.389,0.429,0.834,0.84,0.49,-0.42,0.099,-0.396,-1.226
-0.388,0.424,0.843,2.03,2.31,-1.96,0.104,-0.397,-1.23
-0.38,0.412,0.838,1.4,3.57,-2.8,0.105,-0.394,-1.234
-0.363,0.407,0.827,1.47,4.55,-2.8,0.104,-0.397,-1.228
-0.348,0.411,0.82,2.03,4.48,-2.17,0.105,-0.398,-1.238
-0.333,0.415,0.797,3.71,0.7,-0.56,0.104,-0.398,-1.232
-0.318,0.446,0.795,7.21,-2.31,1.26,0.105,-0.398,-1.235
-0.319,0.448,0.814,11.48,-7.07,2.8,0.101,-0.396,-1.233
-0.332,0.418,0.86,13.72,-12.67,4.69,0.101,-0.396,-1.233
-0.359,0.381,0.902,11.13,-16.31,6.58,0.103,-0.392,-1.233
-0.386,0.355,0.881,-0.84,-15.19,7.35,0.1,-0.394,-1.227
-0.4,0.37,0.865,-6.72,-11.27,5.88,0.098,-0.393,-1.227
-0.392,0.382,0.841,-9.8,-7.63,4.83,0.094,-0.395,-1.232
-0.388,0.402,0.821,-10.92,-4.55,3.57,0.093,-0.401,-1.231
-0.392,0.429,0.806,-10.08,-3.57,1.82,0.092,-0.398,-1.232
-0.406,0.455,0.808,-6.65,-1.4,-0.84,0.097,-0.401,-1.221
-0.419,0.453,0.827,2.59,3.71,-3.57,0.093,-0.401,-1.225
-0.409,0.429,0.839,5.74,8.89,-5.04,0.093,-0.396,-1.228
-0.387,0.402,0.843,4.76,12.67,-6.58,0.1,-0.399,-1.224
