ax,ay,az,gx,gy,gz,mx,my,mz
-0.908,0.365,0.166,-1.19,-6.65,3.64,-0.211,-0.331,-0.894
-0.906,0.362,0.16,-0.42,-8.82,3.78,-0.208,-0.328,-0.898
-0.92,0.355,0.165,0.21,-10.64,4.27,-0.214,-0.329,-0.897
-0.927,0.355,0.174,0.35,-10.15,5.46,-0.213,-0.331,-0.896
-0.919,0.359,0.164,-0.07,-8.61,6.23,-0.211,-0.329,-0.898
-0.907,0.356,0.16,-0.07,-9.59,6.44,-0.215,-0.329,-0.899
-0.913,0.356,0.159,0.07,-11.06,6.37,-0.214,-0.325,-0.895
-0.919,0.357,0.16,-0.21,-11.48,6.23,-0.211,-0.325,-0.893
-0.919,0.361,0.158,-0.42,-10.64,6.37,-0.21,-0.327,-0.895
-0.918,0.362,0.156,-0.07,-10.64,6.3,-0.206,-0.327,-0.893
-0.918,0.36,0.156,0.49,-10.99,6.44,-0.213,-0.323,-0.897
-0.922,0.357,0.159,0.84,-11.06,6.65,-0.213,-0.32,-0.891
-0.934,0.356,0.159,0.28,-10.64,6.58,-0.211,-0.321,-0.891
-0.948,0.355,0.159,-1.05,-10.29,6.37,-0.218,-0.318,-0.894
-0.958,0.357,0.17,-2.73,-8.61,6.23,-0.219,-0.319,-0.889
-0.952,0.362,0.18,-4.55,-6.37,5.53,-0.214,-0.319,-0.884
-0.928,0.342,0.146,-7.14,-3.43,3.36,-0.213,-0.32,-0.883
-0.936,0.326,0.121,-10.78,-3.92,0.98,-0.215,-0.318,-0.886
-0.967,0.331,0.154,-14.98,-5.67,0.21,-0.212,-0.315,-0.889
-0.978,0.339,0.167,-18.76,-3.92,0.0,-0.214,-0.313,-0.878
-0.913,0.361,0.156,-18.9,-0.7,0.84,-0.217,-0.316,-0.876
-0.881,0.365,0.147,-14.98,-1.61,2.03,-0.215,-0.312,-0.877
-0.883,0.356,0.144,-9.03,-5.18,3.85,-0.217,-0.312,-0.875
-0.911,0.333,0.17,-5.11,-7.98,6.65,-0.216,-0.311,-0.878
-0.93,0.317,0.182,-5.46,-6.16,8.47,-0.216,-0.309,-0.881
-0.928,0.324,0.185,-9.31,-2.45,9.66,-0.212,-0.309,-0.877
-0.918,0.345,0.185,-12.81,0.42,10.08,-0.207,-0.311,-0.873
-0.911,0.352,0.187,-12.74,2.59,10.01,-0.213,-0.31,-0.878
-0.889,0.338,0.213,-12.39,5.25,9.52,-0.215,-0.304,-0.87
-0.871,0.318,0.218,-14.56,8.47,7.84,-0.217,-0.301,-0.877
-0.868,0.315,0.216,-19.67,10.78,5.67,-0.218,-0.302,-0.876
-0.891,0.321,0.228,-24.78,14.7,3.36,-0.214,-0.298,-0.875
-0.93,0.322,0.239,-30.31,16.38,2.87,-0.213,-0.3,-0.88
-0.984,0.353,0.248,-36.33,16.87,2.66,-0.223,-0.299,-0.872
-1.027,0.355,0.253,-38.08,18.2,1.05,-0.221,-0.294,-0.871
-1.088,0.381,0.355,-38.92,24.85,1.61,-0.218,-0.293,-0.874
-1.089,0.381,0.35,-47.74,34.86,-2.94,-0.22,-0.293,-0.885
-0.962,0.335,0.26,-53.06,45.01,-4.83,-0.224,-0.287,-0.891
-0.938,0.383,0.293,-60.9,41.93,-7.77,-0.223,-0.289,-0.894
-0.903,0.403,0.298,-71.96,42.56,-17.36,-0.216,-0.287,-0.894
-0.843,0.462,0.305,-70.35,41.58,-20.16,-0.219,-0.289,-0.89
-0.785,0.498,0.31,-57.26,36.26,-19.81,-0.224,-0.292,-0.892
-0.759,0.511,0.297,-37.03,29.89,-17.92,-0.221,-0.29,-0.894
-0.682,0.406,0.203,-17.08,13.72,-9.87,-0.224,-0.291,-0.893
-0.637,0.281,0.141,4.76,-2.03,1.54,-0.222,-0.294,-0.896
-0.685,0.266,0.145,-2.24,-6.3,2.59,-0.224,-0.29,-0.895
-0.671,0.281,0.169,-12.6,-4.13,5.46,-0.227,-0.285,-0.894
-0.655,0.333,0.182,-14.42,-4.13,13.3,-0.224,-0.282,-0.894
-0.651,0.374,0.153,-11.83,-7.07,17.64,-0.224,-0.28,-0.896
-0.659,0.39,0.202,-16.94,-7.35,16.87,-0.229,-0.279,-0.891
-0.65,0.434,0.145,-2.31,-7.91,24.71,-0.224,-0.279,-0.894
-0.643,0.378,0.182,18.55,-12.11,24.01,-0.226,-0.274,-0.895
-0.681,0.272,0.204,24.5,-18.97,26.53,-0.225,-0.268,-0.891
-0.737,0.205,0.216,4.76,-20.72,25.76,-0.226,-0.266,-0.886
-0.766,0.2,0.202,-29.05,-14.56,22.05,-0.226,-0.263,-0.884
-0.785,0.288,0.18,-57.82,-9.1,18.69,-0.23,-0.253,-0.881
-0.807,0.402,0.186,-70.35,-10.15,16.1,-0.23,-0.25,-0.875
-0.833,0.488,0.205,-54.32,-19.39,18.2,-0.231,-0.246,-0.873
-0.853,0.511,0.226,-31.99,-26.95,22.33,-0.231,-0.24,-0.866
-0.834,0.478,0.241,-10.43,-32.76,25.55,-0.231,-0.235,-0.863
-0.802,0.434,0.248,3.43,-38.43,27.09,-0.234,-0.237,-0.857
-0.773,0.421,0.258,11.2,-43.75,27.79,-0.231,-0.227,-0.855
-0.754,0.428,0.242,18.06,-48.23,28.49,-0.233,-0.227,-0.856
-0.793,0.35,0.207,29.4,-54.53,30.66,-0.229,-0.227,-0.845
-0.975,0.389,0.37,23.1,-77.35,47.74,-0.228,-0.219,-0.835
-1.153,0.449,0.506,8.61,-55.72,44.03,-0.229,-0.214,-0.829
-0.954,0.676,0.356,22.26,-19.46,30.66,-0.229,-0.214,-0.823
-0.77,0.625,0.183,61.81,-2.59,30.8,-0.229,-0.21,-0.819
-0.681,0.523,0.106,96.53,-10.22,26.25,-0.236,-0.209,-0.818
-0.716,0.393,0.104,111.23,-18.27,9.24,-0.233,-0.214,-0.825
-0.81,0.282,0.08,105.63,-15.19,-10.01,-0.228,-0.218,-0.826
-0.969,0.221,0.068,89.11,-14.0,-29.05,-0.227,-0.229,-0.824
-1.219,0.184,0.062,65.03,-15.12,-45.15,-0.227,-0.235,-0.823
-1.444,0.158,0.13,10.08,40.67,-64.33,-0.228,-0.252,-0.831
-1.284,0.12,-0.051,-33.39,103.88,-84.35,-0.23,-0.257,-0.828
-1.142,0.126,-0.176,-74.13,119.0,-98.56,-0.224,-0.264,-0.838
-1.211,0.177,-0.178,-102.83,105.0,-106.82,-0.231,-0.279,-0.851
-1.368,0.208,-0.107,-119.35,103.53,-112.84,-0.222,-0.28,-0.856
-1.334,0.218,-0.151,-135.38,124.25,-114.38,-0.225,-0.288,-0.867
-1.124,0.258,-0.197,-152.53,127.75,-113.54,-0.22,-0.302,-0.876
-0.995,0.34,-0.207,-166.46,108.36,-111.16,-0.223,-0.312,-0.877
-1.027,0.424,-0.175,-160.16,84.139,-106.96,-0.215,-0.318,-0.869
-1.087,0.429,-0.14,-113.75,50.679,-100.38,-0.21,-0.326,-0.871
-1.062,0.354,-0.141,-68.46,27.02,-93.8,-0.208,-0.336,-0.87
-0.984,0.282,-0.191,-27.72,6.72,-88.69,-0.203,-0.345,-0.874
-0.955,0.227,-0.223,6.44,-8.12,-77.63,-0.201,-0.353,-0.877
-0.992,0.197,-0.188,34.44,-20.65,-61.46,-0.189,-0.364,-0.87
-1.083,0.161,-0.126,54.11,-28.91,-44.94,-0.189,-0.369,-0.87
-1.148,0.095,-0.094,59.08,-29.89,-29.61,-0.185,-0.373,-0.869
-1.138,0.057,-0.087,41.93,-20.44,-6.23,-0.188,-0.382,-0.886
-1.074,0.03,-0.086,21.0,-14.21,1.26,-0.183,-0.379,-0.879
-1.074,0.047,-0.09,-0.42,-10.36,12.04,-0.186,-0.381,-0.878
-1.097,0.075,-0.081,-17.64,-7.7,24.92,-0.186,-0.379,-0.872
-1.097,0.107,-0.058,-32.13,-7.28,38.57,-0.185,-0.374,-0.875
-1.052,0.143,-0.036,-42.77,-9.73,54.53,-0.193,-0.364,-0.867
-1.02,0.203,-0.002,-45.64,-18.2,74.06,-0.199,-0.356,-0.861
-1.031,0.285,0.043,-34.23,-35.91,103.6,-0.211,-0.341,-0.856
-1.005,0.389,0.092,-15.47,-47.6,120.75,-0.212,-0.329,-0.854
-1.011,0.41,0.102,8.68,-61.67,136.01,-0.218,-0.321,-0.842
-1.018,0.413,0.106,33.25,-73.22,147.91,-0.227,-0.295,-0.839
-1.022,0.417,0.104,54.879,-82.81,156.38,-0.23,-0.281,-0.838
-1.031,0.424,0.096,74.2,-91.0,162.82,-0.229,-0.259,-0.824
-1.075,0.448,0.107,98.56,-101.78,168.42,-0.234,-0.247,-0.819
-1.145,0.557,0.179,113.68,-104.3,165.34,-0.237,-0.232,-0.812
-1.405,0.56,0.194,126.28,-107.45,155.89,-0.234,-0.22,-0.796
-1.547,0.548,0.177,126.63,-99.4,142.94,-0.234,-0.206,-0.787
-1.482,0.495,0.126,111.72,-70.42,121.1,-0.23,-0.197,-0.783
-1.283,0.449,0.075,86.03,-31.5,93.31,-0.234,-0.191,-0.78
-1.111,0.408,0.01,60.48,-5.32,64.26,-0.232,-0.186,-0.786
-1.034,0.326,-0.051,42.63,-2.87,35.35,-0.233,-0.183,-0.786
-1.061,0.232,-0.018,29.61,-18.34,9.52,-0.233,-0.182,-0.781
-1.151,0.194,0.081,11.27,-26.32,-9.73,-0.228,-0.185,-0.789
-1.154,0.195,0.138,-31.08,-2.38,-28.21,-0.231,-0.189,-0.788
-1.048,0.271,0.125,-65.38,16.17,-34.86,-0.226,-0.193,-0.789
-0.964,0.347,0.1,-94.43,24.36,-44.03,-0.227,-0.192,-0.789
-0.938,0.419,0.089,-110.25,23.24,-48.93,-0.226,-0.188,-0.786
-0.949,0.485,0.099,-106.19,21.21,-47.53,-0.228,-0.184,-0.787
-0.941,0.512,0.1,-72.66,24.36,-38.64,-0.233,-0.189,-0.789
-0.91,0.519,0.081,-43.82,24.22,-31.71,-0.232,-0.186,-0.79
-0.89,0.499,0.049,-17.15,21.35,-27.02,-0.231,-0.184,-0.799
-0.927,0.474,0.013,4.69,18.13,-24.43,-0.233,-0.188,-0.802
-1.002,0.458,-0.023,19.6,15.4,-25.06,-0.23,-0.196,-0.8
-1.105,0.436,-0.059,27.44,17.92,-30.59,-0.233,-0.201,-0.804
-1.204,0.395,-0.1,28.63,23.73,-40.53,-0.235,-0.207,-0.81
-1.251,0.346,-0.142,18.13,39.41,-59.22,-0.235,-0.22,-0.809
-1.181,0.267,-0.214,5.88,47.18,-73.5,-0.234,-0.225,-0.817
-1.111,0.22,-0.223,-5.88,45.99,-86.66,-0.23,-0.236,-0.828
-1.057,0.181,-0.193,-17.43,37.8,-95.13,-0.227,-0.245,-0.827
-1.007,0.164,-0.138,-29.4,26.04,-98.49,-0.225,-0.261,-0.832
-0.929,0.177,-0.082,-44.03,15.33,-98.84,-0.226,-0.267,-0.836
-0.834,0.221,-0.033,-57.33,3.85,-97.16,-0.224,-0.275,-0.826
-0.74,0.299,0.032,-59.85,-15.19,-85.89,-0.215,-0.287,-0.826
-0.712,0.338,0.055,-46.27,-27.72,-74.13,-0.215,-0.288,-0.822
-0.707,0.339,0.056,-22.54,-37.31,-59.71,-0.204,-0.304,-0.816
-0.717,0.315,0.054,5.53,-44.03,-43.33,-0.199,-0.305,-0.812
-0.729,0.287,0.054,32.55,-47.04,-26.53,-0.202,-0.306,-0.806
-0.756,0.274,0.046,53.97,-48.44,-9.24,-0.194,-0.315,-0.805
-0.819,0.291,0.037,70.98,-48.16,5.39,-0.197,-0.317,-0.804
-0.891,0.303,0.036,93.45,-43.61,29.4,-0.189,-0.32,-0.802
-0.97,0.271,0.045,102.55,-37.1,44.31,-0.192,-0.321,-0.804
-1.009,0.241,0.06,100.03,-31.57,52.71,-0.192,-0.322,-0.814
-1.054,0.223,0.071,85.679,-26.46,55.58,-0.198,-0.319,-0.81
-1.088,0.22,0.087,63.98,-21.28,55.58,-0.199,-0.321,-0.813
-1.093,0.228,0.081,40.11,-15.05,52.71,-0.198,-0.313,-0.809
-1.066,0.233,0.061,16.73,-9.24,47.04,-0.206,-0.307,-0.814
-1.03,0.238,0.044,-3.01,-5.11,40.18,-0.208,-0.304,-0.81
-1.006,0.253,0.042,-22.33,-2.87,31.08,-0.213,-0.298,-0.804
-0.996,0.287,0.063,-30.24,-2.59,27.37,-0.209,-0.293,-0.809
-0.998,0.31,0.084,-36.75,-1.4,25.62,-0.21,-0.282,-0.812
-0.989,0.334,0.089,-41.23,1.54,26.11,-0.212,-0.28,-0.803
-0.973,0.358,0.074,-42.56,4.2,28.0,-0.216,-0.275,-0.807
-0.975,0.38,0.054,-39.48,5.88,30.73,-0.217,-0.267,-0.806
-0.996,0.393,0.041,-33.32,8.4,33.46,-0.221,-0.265,-0.802
-1.029,0.395,0.028,-21.42,12.88,37.59,-0.222,-0.253,-0.803
-1.03,0.389,0.016,-17.15,16.45,39.13,-0.224,-0.251,-0.805
-1.011,0.39,0.0,-17.08,19.39,37.94,-0.227,-0.248,-0.803
-0.986,0.396,-0.014,-18.76,20.51,34.86,-0.23,-0.24,-0.806
-0.961,0.406,-0.015,-19.46,19.46,30.45,-0.233,-0.233,-0.809
-0.939,0.411,-0.007,-17.85,17.15,24.64,-0.232,-0.229,-0.815
-0.917,0.407,0.001,-12.88,11.62,15.68,-0.235,-0.229,-0.813
-0.888,0.406,-0.001,-9.03,7.07,10.01,-0.238,-0.226,-0.817
-0.891,0.41,0.0,-4.69,2.66,5.88,-0.235,-0.223,-0.819
-0.909,0.413,0.011,1.19,-0.56,3.36,-0.24,-0.223,-0.816
-0.918,0.402,0.017,6.93,-1.54,1.47,-0.237,-0.225,-0.816
-0.914,0.385,0.012,10.57,-0.49,-0.42,-0.235,-0.222,-0.821
-0.912,0.366,0.002,11.13,0.49,-2.73,-0.237,-0.227,-0.821
-0.923,0.355,0.003,7.77,2.1,-5.6,-0.234,-0.227,-0.823
-0.934,0.337,-0.008,2.8,3.71,-8.33,-0.233,-0.228,-0.824
-0.943,0.337,-0.016,-2.94,4.27,-10.85,-0.237,-0.229,-0.819
-0.955,0.354,-0.007,-7.56,3.85,-13.09,-0.241,-0.233,-0.822
-0.98,0.373,-0.002,-9.87,2.17,-15.4,-0.237,-0.232,-0.826
-1.012,0.387,0.002,-9.1,0.28,-17.57,-0.233,-0.23,-0.82
-1.02,0.384,-0.007,-7.0,1.33,-21.7,-0.234,-0.232,-0.825
-1.017,0.371,-0.019,-3.71,0.84,-24.36,-0.229,-0.237,-0.821
-1.065,0.361,-0.012,-2.73,-0.35,-26.39,-0.23,-0.237,-0.826
-1.099,0.352,0.001,-3.08,-0.28,-28.63,-0.232,-0.242,-0.823
-1.106,0.343,0.014,-4.97,0.49,-30.45,-0.229,-0.246,-0.823
-1.084,0.35,0.014,-7.98,2.17,-33.04,-0.231,-0.25,-0.822
-1.05,0.354,-0.002,-9.59,3.36,-37.03,-0.227,-0.257,-0.827
-1.064,0.35,-0.008,-8.33,2.31,-40.81,-0.232,-0.255,-0.827
-1.164,0.333,-0.005,-6.58,0.77,-41.16,-0.226,-0.267,-0.825
-1.246,0.313,0.0,-7.49,2.17,-39.27,-0.222,-0.269,-0.824
-1.32,0.305,0.005,-12.74,4.76,-35.42,-0.223,-0.271,-0.824
-1.309,0.33,-0.006,-21.21,10.08,-32.69,-0.225,-0.277,-0.827
-1.205,0.357,-0.028,-26.25,15.33,-32.76,-0.223,-0.281,-0.829
-1.135,0.365,-0.048,-23.73,14.07,-34.3,-0.219,-0.279,-0.835
-1.162,0.364,-0.037,-16.17,7.7,-53.62,-0.222,-0.284,-0.83
-1.21,0.345,-0.011,-8.54,3.43,-34.44,-0.214,-0.289,-0.831
-1.208,0.324,0.0,-3.36,2.73,-30.17,-0.212,-0.293,-0.83
-1.172,0.317,0.011,-2.59,2.45,-25.13,-0.214,-0.298,-0.831
-1.087,0.323,0.01,-2.17,2.94,-20.58,-0.211,-0.297,-0.837
-1.053,0.324,0.006,-0.84,3.08,-16.1,-0.212,-0.305,-0.836
-1.037,0.323,0.003,1.61,3.01,-11.83,-0.212,-0.3,-0.837
-1.023,0.318,0.006,3.43,3.57,-8.12,-0.21,-0.3,-0.834
-1.006,0.324,0.015,3.99,2.8,-4.97,-0.21,-0.302,-0.835
-0.98,0.347,0.012,4.34,3.29,-3.78,-0.215,-0.304,-0.836
-0.941,0.356,-0.003,6.51,4.2,-3.36,-0.207,-0.307,-0.836
-0.907,0.348,-0.025,10.29,5.18,-3.01,-0.206,-0.305,-0.839
-0.902,0.345,-0.039,13.51,3.15,-1.75,-0.209,-0.307,-0.844
-0.928,0.345,-0.055,15.33,1.96,-0.42,-0.211,-0.307,-0.847
-0.918,0.339,-0.076,14.42,2.24,0.49,-0.205,-0.305,-0.847
-0.906,0.344,-0.095,10.36,0.28,0.35,-0.206,-0.306,-0.851
-0.903,0.355,-0.123,6.37,-1.68,0.0,-0.205,-0.308,-0.848
-0.906,0.366,-0.151,5.67,-4.06,1.26,-0.206,-0.31,-0.845
-0.938,0.383,-0.168,7.21,-8.26,3.78,-0.206,-0.31,-0.847
-1.008,0.402,-0.182,10.85,-14.42,6.3,-0.205,-0.306,-0.849
-1.158,0.412,-0.196,18.9,-17.71,7.56,-0.207,-0.308,-0.848
-1.225,0.428,-0.202,24.71,-17.92,8.89,-0.207,-0.306,-0.849
-1.275,0.454,-0.191,33.6,-18.41,9.94,-0.207,-0.31,-0.851
-1.293,0.47,-0.179,42.98,-18.13,10.01,-0.204,-0.308,-0.852
-1.277,0.472,-0.183,51.8,-16.73,8.26,-0.204,-0.308,-0.854
-1.243,0.427,-0.146,61.6,-12.04,6.72,-0.206,-0.31,-0.864
-1.127,0.346,-0.036,71.12,-2.66,6.3,-0.205,-0.315,-0.862
-1.045,0.323,0.084,68.74,1.05,-3.22,-0.202,-0.322,-0.865
-1.0,0.271,0.21,66.57,6.3,-8.4,-0.205,-0.318,-0.87
-0.965,0.339,0.283,63.0,14.0,-15.05,-0.206,-0.319,-0.873
-0.867,0.273,0.33,71.05,30.1,-21.49,-0.2,-0.328,-0.889
-0.734,0.089,0.303,89.11,46.55,-5.39,-0.195,-0.33,-0.898
-0.566,-0.199,0.321,57.96,43.19,-4.62,-0.2,-0.336,-0.91
-0.514,-0.113,0.263,-1.96,40.04,-20.23,-0.199,-0.334,-0.911
-0.454,-0.021,0.129,-45.92,30.31,-37.94,-0.199,-0.34,-0.916
-0.406,0.016,0.02,-59.08,13.72,-32.76,-0.196,-0.344,-0.917
-0.379,0.007,0.033,-70.7,-1.82,-10.57,-0.193,-0.345,-0.913
-0.354,0.106,0.069,-82.53,-11.69,17.22,-0.193,-0.339,-0.903
-0.36,0.176,0.122,-58.73,-28.07,79.45,-0.199,-0.336,-0.895
-0.512,0.267,0.555,-35.63,-28.0,135.66,-0.21,-0.315,-0.887
-0.594,0.497,0.646,-37.94,-27.58,153.09,-0.214,-0.3,-0.88
-0.641,0.632,0.585,-35.0,-37.38,163.24,-0.222,-0.288,-0.88
-0.741,0.73,0.474,-11.34,-55.51,177.73,-0.228,-0.255,-0.872
-0.936,0.783,0.412,28.42,-67.27,183.89,-0.237,-0.239,-0.87
-1.16,0.802,0.318,67.83,-80.01,183.05,-0.239,-0.226,-0.826
-1.424,0.891,0.231,99.26,-92.26,169.47,-0.242,-0.2,-0.847
-1.582,1.028,0.255,132.72,-72.45,146.72,-0.243,-0.193,-0.845
-1.47,0.984,0.252,178.22,8.47,104.51,-0.244,-0.179,-0.851
-1.109,0.502,0.141,178.08,40.6,65.169,-0.247,-0.18,-0.857
-0.915,0.214,0.099,153.51,28.77,20.65,-0.249,-0.178,-0.871
-0.908,-0.017,0.166,117.81,-4.13,-22.12,-0.249,-0.192,-0.87
-0.958,-0.182,0.31,64.679,-15.68,-52.01,-0.25,-0.196,-0.87
-0.905,-0.201,0.383,-2.94,7.56,-67.55,-0.247,-0.21,-0.869
-0.737,-0.113,0.329,-69.09,38.08,-76.51,-0.244,-0.213,-0.873
-0.59,0.078,0.334,-136.15,46.97,-74.34,-0.247,-0.219,-0.875
-0.5,0.285,0.372,-154.14,35.35,-66.85,-0.243,-0.227,-0.877
-0.523,0.469,0.373,-147.21,29.61,-62.44,-0.24,-0.226,-0.875
-0.545,0.529,0.34,-121.45,28.91,-57.68,-0.24,-0.231,-0.878
-0.554,0.547,0.293,-84.42,29.12,-46.9,-0.237,-0.229,-0.877
-0.586,0.5,0.288,-48.16,25.27,-36.05,-0.24,-0.234,-0.882
-0.641,0.476,0.214,-17.43,17.71,-29.19,-0.241,-0.243,-0.883
-0.726,0.483,0.201,4.83,7.63,-28.35,-0.241,-0.246,-0.886
-0.832,0.43,0.163,26.95,-2.24,-25.62,-0.242,-0.246,-0.884
-0.983,0.443,0.165,53.55,-8.61,-20.16,-0.236,-0.254,-0.89
-1.19,0.416,0.152,60.48,-4.27,-19.74,-0.234,-0.253,-0.887
-1.283,0.44,0.213,60.76,0.98,-17.78,-0.23,-0.263,-0.889
-1.367,0.473,0.244,57.47,2.87,-20.51,-0.231,-0.265,-0.891
-1.367,0.466,0.26,48.72,9.24,-29.47,-0.231,-0.268,-0.897
-1.239,0.437,0.196,35.77,27.86,-42.91,-0.228,-0.274,-0.899
-1.092,0.409,0.131,23.45,40.74,-58.45,-0.227,-0.283,-0.9
-1.001,0.381,0.11,18.41,43.12,-73.64,-0.223,-0.291,-0.918
-0.96,0.351,0.119,19.46,39.55,-105.77,-0.218,-0.3,-0.922
-0.961,0.31,0.142,21.0,32.83,-106.54,-0.216,-0.309,-0.927
-1.03,0.238,0.177,13.79,33.88,-114.94,-0.21,-0.327,-0.931
-1.067,0.212,0.17,0.7,41.09,-118.86,-0.2,-0.336,-0.941
-1.075,0.202,0.142,-15.12,49.909,-119.63,-0.196,-0.35,-0.944
-1.054,0.205,0.108,-32.41,57.33,-118.23,-0.183,-0.368,-0.946
-1.028,0.208,0.076,-48.09,60.899,-114.66,-0.176,-0.373,-0.945
-1.0,0.213,0.068,-59.78,59.85,-108.08,-0.166,-0.394,-0.95
-0.952,0.222,0.072,-69.23,55.3,-92.89,-0.159,-0.398,-0.949
-0.804,0.231,0.076,-70.21,49.35,-82.18,-0.158,-0.415,-0.948
-0.69,0.238,0.078,-67.55,37.1,-69.09,-0.152,-0.417,-0.943
-0.615,0.253,0.094,-59.92,21.0,-53.83,-0.144,-0.417,-0.945
-0.58,0.265,0.108,-47.32,4.48,-37.87,-0.137,-0.427,-0.934
-0.575,0.273,0.118,-30.73,-9.59,-19.6,-0.138,-0.426,-0.93
-0.59,0.278,0.125,-12.74,-23.8,0.0,-0.134,-0.43,-0.929
-0.618,0.289,0.124,4.41,-35.98,31.29,-0.137,-0.425,-0.93
-0.654,0.295,0.117,20.72,-46.62,51.31,-0.138,-0.425,-0.927
-0.692,0.29,0.115,40.74,-59.15,70.07,-0.151,-0.422,-0.921
-0.767,0.289,0.122,49.419,-66.5,86.52,-0.154,-0.414,-0.925
-0.839,0.294,0.137,54.46,-73.22,101.15,-0.159,-0.409,-0.919
-0.913,0.301,0.157,56.28,-78.82,113.61,-0.169,-0.393,-0.912
-0.993,0.322,0.186,53.899,-82.88,123.9,-0.176,-0.385,-0.913
-1.056,0.36,0.218,48.44,-84.07,130.48,-0.188,-0.365,-0.908
-1.097,0.41,0.25,42.84,-82.6,132.51,-0.191,-0.354,-0.902
-1.151,0.472,0.252,35.42,-76.72,128.94,-0.198,-0.345,-0.903
-1.16,0.51,0.251,33.74,-71.61,122.22,-0.204,-0.33,-0.892
-1.182,0.535,0.264,34.16,-64.82,113.4,-0.211,-0.316,-0.882
-1.193,0.5,0.286,38.92,-54.6,102.62,-0.223,-0.306,-0.884
-1.191,0.37,0.29,41.02,-48.51,92.96,-0.226,-0.295,-0.884
-1.21,0.241,0.487,-47.39,-24.57,57.54,-0.227,-0.289,-0.869
-1.207,0.272,0.425,-138.25,-3.71,28.0,-0.233,-0.28,-0.87
-1.179,0.547,0.302,-173.18,17.36,12.81,-0.235,-0.275,-0.871
-1.074,0.737,0.211,-148.33,31.64,1.75,-0.235,-0.261,-0.861
-0.961,0.761,0.178,-95.83,31.78,-0.35,-0.237,-0.261,-0.858
-0.9,0.7,0.199,-47.67,20.65,3.22,-0.24,-0.257,-0.856
-0.881,0.599,0.208,-9.8,8.26,-3.08,-0.241,-0.259,-0.86
-0.874,0.465,0.175,4.83,9.66,-3.29,-0.235,-0.262,-0.86
-0.832,0.394,0.177,14.49,11.41,1.47,-0.238,-0.262,-0.865
-0.789,0.354,0.168,14.07,9.87,4.41,-0.239,-0.263,-0.859
-0.768,0.361,0.166,7.14,5.39,6.02,-0.24,-0.257,-0.872
-0.772,0.387,0.174,0.63,1.4,8.47,-0.24,-0.26,-0.865
-0.786,0.443,0.171,0.56,-1.54,11.13,-0.243,-0.256,-0.868
-0.804,0.481,0.172,8.54,-4.9,14.7,-0.247,-0.259,-0.863
-0.843,0.502,0.176,24.64,-7.07,15.05,-0.247,-0.254,-0.866
-0.886,0.511,0.179,32.9,-8.54,12.46,-0.246,-0.254,-0.867
-0.929,0.526,0.197,40.74,-8.26,8.61,-0.242,-0.252,-0.874
-0.955,0.523,0.2,48.79,-4.97,2.73,-0.245,-0.254,-0.869
-0.974,0.503,0.186,53.899,-2.1,-4.34,-0.247,-0.252,-0.872
-0.998,0.476,0.18,54.53,-1.19,-12.04,-0.243,-0.259,-0.879
-1.022,0.434,0.185,48.649,4.55,-26.67,-0.243,-0.264,-0.884
-1.013,0.4,0.17,41.58,10.29,-36.4,-0.242,-0.268,-0.885
-1.002,0.372,0.163,32.41,14.07,-45.71,-0.239,-0.275,-0.891
-0.997,0.36,0.162,21.35,16.52,-54.46,-0.24,-0.283,-0.891
-0.999,0.362,0.157,12.25,18.76,-61.88,-0.236,-0.284,-0.891
-1.004,0.362,0.157,5.39,20.3,-66.85,-0.227,-0.298,-0.892
-1.004,0.363,0.154,1.54,21.14,-70.21,-0.226,-0.305,-0.892
-1.001,0.365,0.153,-0.28,22.82,-72.87,-0.222,-0.318,-0.904
-0.993,0.368,0.141,0.7,23.24,-72.87,-0.212,-0.322,-0.908
-0.976,0.361,0.136,3.5,22.05,-71.75,-0.217,-0.33,-0.911
-0.968,0.351,0.137,7.0,20.51,-69.72,-0.206,-0.339,-0.908
-0.957,0.339,0.136,10.36,19.11,-67.06,-0.203,-0.344,-0.921
-0.943,0.327,0.134,12.95,17.22,-64.12,-0.2,-0.353,-0.913
-0.931,0.315,0.128,14.91,14.35,-60.76,-0.197,-0.364,-0.917
-0.925,0.304,0.126,16.59,9.45,-54.32,-0.191,-0.365,-0.926
-0.914,0.289,0.129,18.41,6.44,-49.28,-0.183,-0.376,-0.926
-0.9,0.282,0.133,19.11,4.06,-43.96,-0.186,-0.376,-0.926
-0.887,0.277,0.136,19.46,1.19,-38.29,-0.179,-0.386,-0.929
-0.881,0.274,0.141,20.37,-1.82,-32.27,-0.175,-0.388,-0.926
-0.879,0.266,0.146,20.58,-3.99,-26.11,-0.174,-0.391,-0.93
-0.878,0.259,0.152,20.3,-6.23,-19.39,-0.174,-0.397,-0.931
-0.876,0.249,0.155,17.01,-8.96,-9.52,-0.167,-0.394,-0.933
-0.88,0.249,0.164,13.93,-10.71,-3.85,-0.17,-0.399,-0.934
-0.881,0.248,0.168,10.43,-11.97,2.8,-0.17,-0.4,-0.931
-0.887,0.25,0.167,5.74,-13.23,9.1,-0.169,-0.393,-0.928
-0.887,0.261,0.179,1.19,-14.14,15.75,-0.179,-0.396,-0.931
-0.877,0.274,0.18,-2.1,-13.79,21.63,-0.176,-0.389,-0.924
-0.866,0.288,0.177,-3.99,-14.77,26.88,-0.183,-0.388,-0.926
-0.871,0.298,0.18,-4.55,-17.01,32.48,-0.18,-0.385,-0.928
-0.883,0.303,0.186,-4.41,-19.53,38.08,-0.18,-0.382,-0.927
-0.895,0.309,0.191,-4.06,-20.65,46.48,-0.189,-0.374,-0.924
-0.904,0.318,0.198,-5.04,-21.35,51.379,-0.189,-0.372,-0.921
-0.926,0.334,0.203,-6.23,-22.12,55.37,-0.19,-0.367,-0.922
-0.942,0.348,0.207,-7.77,-22.47,58.659,-0.2,-0.357,-0.917
-0.954,0.361,0.209,-9.1,-21.56,60.899,-0.202,-0.357,-0.91
-0.96,0.372,0.204,-10.85,-20.86,61.95,-0.207,-0.347,-0.909
