ax,ay,az,gx,gy,gz,mx,my,mz
-0.926,0.375,-0.031,-1.26,-4.27,1.26,-0.2,-0.272,-0.798
-0.929,0.375,-0.028,-1.68,-3.71,1.12,-0.204,-0.27,-0.793
-0.934,0.376,-0.03,-1.96,-3.64,1.19,-0.205,-0.27,-0.76
-0.94,0.379,-0.023,-2.45,-3.15,0.42,-0.202,-0.273,-0.794
-0.954,0.378,-0.01,-3.08,-2.87,0.0,-0.201,-0.269,-0.796
-0.987,0.377,0.0,-6.44,-1.26,-1.26,-0.201,-0.268,-0.789
-0.975,0.382,0.003,-11.06,1.12,-2.17,-0.201,-0.269,-0.792
-0.956,0.4,0.007,-15.26,3.57,-3.78,-0.202,-0.271,-0.793
-0.944,0.411,0.004,-15.68,4.62,-4.97,-0.201,-0.267,-0.793
-0.925,0.411,0.003,-13.58,5.32,-6.3,-0.2,-0.268,-0.795
-0.893,0.403,0.004,-11.97,4.76,-9.03,-0.203,-0.269,-0.795
-0.878,0.398,0.009,-10.36,3.29,-13.23,-0.2,-0.27,-0.798
-0.831,0.371,0.013,-9.87,2.24,-15.33,-0.198,-0.27,-0.799
-0.772,0.353,0.014,-10.01,1.19,-16.87,-0.197,-0.273,-0.803
-0.718,0.34,0.003,-8.75,-1.33,-18.69,-0.2,-0.277,-0.801
-0.709,0.336,-0.032,-5.81,-4.27,-19.11,-0.198,-0.28,-0.801
-0.784,0.349,-0.056,2.31,-9.66,-14.98,-0.199,-0.278,-0.797
-0.917,0.361,-0.043,8.54,-10.78,-8.47,-0.195,-0.281,-0.802
-0.971,0.383,-0.03,11.97,-9.24,-2.45,-0.194,-0.28,-0.803
-1.015,0.432,-0.045,14.49,-5.95,4.76,-0.196,-0.279,-0.801
-1.074,0.458,-0.057,18.27,-3.22,12.11,-0.197,-0.281,-0.799
-1.124,0.455,-0.055,20.44,0.91,18.55,-0.195,-0.28,-0.803
-1.062,0.429,-0.061,9.45,8.26,21.42,-0.197,-0.277,-0.802
-0.952,0.421,-0.07,-6.02,9.66,16.1,-0.198,-0.275,-0.803
-0.848,0.434,-0.077,-23.52,7.0,6.72,-0.197,-0.278,-0.807
-0.791,0.453,-0.077,-29.75,0.84,-2.17,-0.2,-0.273,-0.808
-0.791,0.499,-0.071,-22.82,-5.67,-5.04,-0.2,-0.273,-0.799
-0.819,0.474,-0.047,3.29,-12.95,-4.2,-0.201,-0.277,-0.807
-0.836,0.43,-0.032,17.08,-13.02,0.42,-0.201,-0.274,-0.801
-0.858,0.39,-0.018,19.04,-9.73,4.27,-0.201,-0.275,-0.804
-0.879,0.379,-0.011,10.01,-4.06,8.12,-0.202,-0.274,-0.807
-0.886,0.39,-0.017,-4.06,2.59,9.45,-0.201,-0.27,-0.803
-0.884,0.42,-0.039,-20.51,10.78,8.68,-0.196,-0.272,-0.804
-0.877,0.452,-0.071,-26.25,13.44,6.51,-0.205,-0.267,-0.802
-0.88,0.454,-0.079,-29.82,13.79,4.06,-0.204,-0.267,-0.807
-0.887,0.457,-0.088,-33.39,12.53,0.77,-0.206,-0.264,-0.809
-0.9,0.47,-0.093,-35.77,10.22,-1.96,-0.21,-0.262,-0.811
-0.904,0.479,-0.093,-33.81,7.56,-3.43,-0.201,-0.259,-0.804
-0.887,0.476,-0.076,-25.34,3.15,-3.29,-0.205,-0.259,-0.804
-0.877,0.451,-0.064,-21.91,1.75,-2.94,-0.206,-0.263,-0.804
-0.87,0.446,-0.048,-23.38,2.1,-1.96,-0.204,-0.259,-0.807
-0.865,0.451,-0.03,-26.74,3.57,-1.47,-0.207,-0.257,-0.805
-0.867,0.466,-0.03,-27.58,5.53,-0.42,-0.203,-0.252,-0.809
-0.875,0.465,-0.035,-26.04,6.72,1.54,-0.209,-0.252,-0.81
-0.897,0.466,-0.026,-27.51,7.91,3.08,-0.208,-0.248,-0.807
-0.905,0.47,-0.027,-31.78,9.45,3.85,-0.209,-0.248,-0.809
-0.903,0.486,-0.028,-35.49,10.29,4.55,-0.211,-0.243,-0.811
-0.902,0.506,-0.028,-36.54,10.78,4.83,-0.211,-0.238,-0.808
-0.896,0.519,-0.029,-32.41,10.92,6.09,-0.208,-0.238,-0.81
-0.901,0.51,-0.031,-23.52,10.08,8.05,-0.214,-0.235,-0.809
-0.904,0.461,-0.029,-23.73,10.64,10.08,-0.211,-0.232,-0.809
-0.893,0.451,-0.029,-28.42,11.13,11.69,-0.214,-0.223,-0.811
-0.905,0.461,-0.04,-32.06,10.85,13.72,-0.22,-0.227,-0.814
-0.903,0.458,-0.043,-31.57,10.08,17.29,-0.215,-0.22,-0.815
-0.891,0.446,-0.044,-28.98,8.89,24.99,-0.22,-0.21,-0.817
-0.88,0.406,-0.057,-23.66,8.54,29.61,-0.223,-0.206,-0.811
-0.904,0.333,-0.09,-21.21,7.56,34.02,-0.224,-0.202,-0.818
-1.038,0.292,-0.09,-24.36,6.58,41.51,-0.225,-0.195,-0.815
-1.1,0.292,-0.077,-28.56,8.19,50.19,-0.226,-0.185,-0.818
-0.963,0.29,-0.067,-31.36,10.5,59.29,-0.229,-0.179,-0.824
-0.758,0.289,-0.047,-30.03,6.37,56.77,-0.231,-0.164,-0.82
-0.714,0.289,-0.055,-24.5,2.03,50.19,-0.231,-0.158,-0.822
-0.698,0.274,-0.038,-16.73,-2.03,44.94,-0.231,-0.157,-0.817
-0.748,0.25,-0.005,-9.31,-4.2,41.3,-0.228,-0.151,-0.82
-0.841,0.209,0.023,-8.54,-3.85,38.22,-0.231,-0.144,-0.818
-0.859,0.168,-0.021,-14.56,-0.21,38.15,-0.232,-0.144,-0.819
-0.786,0.145,-0.061,-21.35,2.38,41.93,-0.234,-0.131,-0.814
-0.79,0.186,-0.065,-16.59,-0.91,43.19,-0.23,-0.123,-0.815
-0.925,0.2,-0.064,-2.87,-2.8,41.09,-0.232,-0.12,-0.817
-1.017,0.151,-0.095,13.58,-3.01,38.43,-0.229,-0.11,-0.819
-1.056,0.048,-0.114,22.47,-3.01,33.67,-0.231,-0.102,-0.816
-1.104,-0.05,-0.1,15.12,-3.08,26.39,-0.23,-0.106,-0.818
-1.072,-0.119,-0.073,-14.77,-0.7,16.17,-0.231,-0.102,-0.815
-0.978,-0.104,-0.067,-33.46,-0.07,10.64,-0.232,-0.101,-0.814
-0.887,-0.122,-0.063,-37.24,-1.12,8.68,-0.231,-0.098,-0.817
-0.833,-0.124,-0.06,-28.21,-3.15,11.69,-0.234,-0.094,-0.812
-0.835,-0.133,-0.031,-17.92,-4.97,13.3,-0.234,-0.086,-0.812
-0.886,-0.157,-0.032,-10.99,-4.83,17.15,-0.234,-0.084,-0.816
-0.956,-0.194,-0.058,-13.86,-2.87,18.55,-0.232,-0.084,-0.817
-0.964,-0.187,-0.073,-18.13,-0.91,22.61,-0.235,-0.083,-0.81
-0.961,-0.171,-0.081,-21.7,0.42,24.99,-0.234,-0.076,-0.813
-0.966,-0.135,-0.074,-23.8,0.91,27.44,-0.233,-0.072,-0.813
-1.004,-0.122,-0.076,-25.34,0.21,27.44,-0.23,-0.062,-0.815
-1.041,-0.134,-0.057,-25.06,-0.28,28.35,-0.233,-0.059,-0.818
-1.074,-0.12,-0.056,-28.77,0.28,28.56,-0.232,-0.058,-0.82
-1.096,-0.067,-0.087,-27.51,0.98,30.17,-0.231,-0.048,-0.819
-1.078,-0.038,-0.082,-18.69,-0.14,32.41,-0.228,-0.047,-0.823
-1.053,-0.02,-0.056,-7.21,-2.38,32.34,-0.225,-0.044,-0.823
-1.025,-0.036,-0.029,1.26,-4.97,29.12,-0.23,-0.039,-0.827
-1.019,-0.054,-0.019,5.53,-7.77,23.66,-0.229,-0.032,-0.824
-1.05,-0.055,-0.024,2.31,-7.77,19.88,-0.229,-0.029,-0.823
-1.047,-0.044,-0.024,0.28,-6.58,17.92,-0.228,-0.029,-0.82
-1.051,-0.021,-0.021,1.26,-5.95,16.17,-0.224,-0.026,-0.823
-1.072,-0.014,-0.014,4.83,-5.39,13.72,-0.221,-0.028,-0.819
-1.068,-0.053,-0.02,9.66,-4.83,11.48,-0.217,-0.026,-0.822
-1.036,-0.071,-0.038,8.47,-3.71,11.06,-0.22,-0.025,-0.82
-1.028,-0.054,-0.033,7.91,-3.92,10.01,-0.222,-0.022,-0.818
-1.041,-0.05,-0.042,12.53,-4.27,10.99,-0.217,-0.022,-0.82
-1.062,-0.06,-0.066,16.87,-3.85,10.57,-0.222,-0.023,-0.82
-1.09,-0.068,-0.07,18.69,-3.85,10.5,-0.219,-0.024,-0.823
-1.128,-0.061,-0.067,17.71,-4.13,9.24,-0.223,-0.024,-0.825
-1.177,-0.04,-0.056,15.89,-4.9,6.3,-0.22,-0.023,-0.823
-1.183,-0.033,-0.026,17.01,-4.06,5.18,-0.225,-0.021,-0.823
-1.171,-0.037,-0.038,18.2,-3.01,3.78,-0.218,-0.024,-0.818
-1.151,-0.054,-0.05,17.57,-2.17,2.52,-0.22,-0.024,-0.815
-1.111,-0.061,-0.041,15.75,-1.89,1.4,-0.221,-0.026,-0.816
-1.07,-0.078,-0.017,17.15,-2.45,0.7,-0.219,-0.024,-0.811
-1.074,-0.085,-0.035,20.23,-2.73,1.75,-0.216,-0.028,-0.806
-1.075,-0.097,-0.043,22.33,-2.45,3.64,-0.218,-0.031,-0.809
-1.051,-0.115,-0.045,21.42,-1.89,4.9,-0.222,-0.032,-0.81
-1.012,-0.122,-0.053,18.34,-1.4,5.95,-0.219,-0.029,-0.81
-1.001,-0.113,-0.085,16.73,-2.1,6.37,-0.225,-0.029,-0.807
-1.0,-0.113,-0.084,17.92,-2.45,6.37,-0.222,-0.027,-0.81
-1.01,-0.129,-0.1,18.06,-2.45,5.88,-0.22,-0.027,-0.81
-1.043,-0.158,-0.111,15.19,-2.17,4.9,-0.222,-0.032,-0.807
-1.058,-0.172,-0.138,7.42,-0.49,4.48,-0.223,-0.029,-0.816
-1.057,-0.166,-0.153,-0.42,0.91,4.9,-0.221,-0.027,-0.814
-1.051,-0.151,-0.161,-3.78,-0.35,5.67,-0.223,-0.026,-0.815
-1.071,-0.146,-0.167,-1.12,-3.01,5.53,-0.221,-0.023,-0.81
-1.065,-0.139,-0.162,0.56,-5.39,5.32,-0.219,-0.026,-0.807
-1.039,-0.127,-0.143,1.61,-8.47,4.27,-0.219,-0.024,-0.803
-1.025,-0.127,-0.125,5.39,-12.04,3.5,-0.219,-0.029,-0.802
-1.013,-0.125,-0.111,8.47,-14.49,3.78,-0.214,-0.024,-0.803
-1.017,-0.112,-0.055,12.32,-15.75,4.69,-0.218,-0.026,-0.806
-1.024,-0.133,-0.044,10.92,-12.88,3.64,-0.217,-0.023,-0.804
-0.999,-0.137,-0.067,2.52,-8.33,2.87,-0.221,-0.025,-0.801
-0.991,-0.125,-0.07,-5.81,-5.67,1.96,-0.216,-0.02,-0.804
-1.019,-0.089,-0.061,-10.78,-3.99,2.94,-0.22,-0.025,-0.8
-1.051,-0.064,-0.059,-9.8,-3.01,3.99,-0.215,-0.023,-0.804
-1.039,-0.04,-0.063,-3.71,-3.5,5.11,-0.216,-0.02,-0.8
-1.023,-0.02,-0.065,0.42,-5.04,4.76,-0.216,-0.022,-0.81
-1.026,-0.008,-0.071,6.23,-7.0,3.92,-0.212,-0.02,-0.797
-1.031,-0.016,-0.075,13.58,-8.12,2.66,-0.214,-0.026,-0.803
-1.036,-0.031,-0.076,19.25,-8.89,2.1,-0.212,-0.023,-0.799
-1.044,-0.05,-0.076,20.37,-7.63,0.98,-0.208,-0.024,-0.793
-1.038,-0.058,-0.078,17.78,-6.23,-0.14,-0.212,-0.02,-0.8
-1.026,-0.062,-0.086,14.35,-4.69,-2.03,-0.214,-0.024,-0.797
-1.032,-0.071,-0.092,10.22,-3.92,-4.27,-0.216,-0.024,-0.795
-1.032,-0.087,-0.097,6.93,-3.15,-5.32,-0.21,-0.027,-0.794
-1.034,-0.09,-0.108,2.94,-2.38,-6.02,-0.217,-0.027,-0.792
-1.03,-0.087,-0.114,1.12,-2.1,-5.46,-0.211,-0.03,-0.798
-1.034,-0.087,-0.113,2.8,-2.8,-4.83,-0.214,-0.03,-0.792
-1.032,-0.091,-0.114,4.41,-2.94,-4.55,-0.213,-0.032,-0.798
-1.025,-0.093,-0.118,3.92,-2.94,-4.62,-0.214,-0.032,-0.799
-1.006,-0.1,-0.118,2.24,-2.94,-4.83,-0.215,-0.034,-0.795
-0.988,-0.111,-0.115,-1.19,-3.22,-4.9,-0.215,-0.033,-0.792
-0.996,-0.098,-0.122,-2.66,-3.36,-4.76,-0.214,-0.037,-0.792
-1.006,-0.085,-0.122,0.28,-3.78,-3.29,-0.216,-0.034,-0.795
-1.029,-0.08,-0.121,4.34,-4.55,-1.75,-0.215,-0.036,-0.791
-1.05,-0.098,-0.121,5.95,-4.76,-1.47,-0.215,-0.035,-0.79
-1.051,-0.101,-0.124,3.43,-4.34,-0.77,-0.212,-0.037,-0.797
-1.016,-0.085,-0.104,-0.42,-3.99,-0.56,-0.216,-0.036,-0.798
-0.996,-0.072,-0.101,-0.42,-4.06,-0.21,-0.213,-0.037,-0.788
-0.992,-0.065,-0.102,0.63,-4.48,-0.84,-0.209,-0.035,-0.786
-0.996,-0.066,-0.101,2.17,-4.55,-1.12,-0.212,-0.071,-0.791
-1.001,-0.056,-0.104,3.99,-5.11,-1.82,-0.213,-0.032,-0.787
-1.024,-0.072,-0.094,5.04,-5.39,-2.17,-0.213,-0.033,-0.786
-1.049,-0.077,-0.096,3.85,-4.83,-2.73,-0.213,-0.036,-0.787
-1.058,-0.084,-0.096,2.66,-3.36,-2.45,-0.212,-0.037,-0.792
-1.041,-0.083,-0.096,1.19,-2.52,-1.96,-0.213,-0.039,-0.785
-1.018,-0.088,-0.103,-0.42,-1.05,-2.17,-0.216,-0.039,-0.79
-1.007,-0.096,-0.101,-2.59,-1.4,-3.08,-0.215,-0.038,-0.825
-0.995,-0.087,-0.097,-3.71,-1.26,-2.38,-0.213,-0.038,-0.792
-1.002,-0.081,-0.094,-2.73,-1.89,-2.1,-0.212,-0.038,-0.79
-1.002,-0.088,-0.089,-0.7,-1.96,-0.7,-0.211,-0.037,-0.79
-0.993,-0.089,-0.091,-2.03,-1.75,0.14,-0.215,-0.035,-0.787
-0.967,-0.082,-0.092,-3.29,-1.12,0.84,-0.216,-0.033,-0.787
-0.938,-0.059,-0.09,-0.49,-1.26,3.57,-0.214,-0.032,-0.787
-0.963,-0.052,-0.092,3.64,-2.03,5.04,-0.214,-0.035,-0.792
-0.99,-0.066,-0.091,7.0,-2.45,5.53,-0.217,-0.033,-0.785
-0.996,-0.064,-0.107,5.46,-1.75,6.02,-0.216,-0.034,-0.788
-0.986,-0.064,-0.107,1.89,-0.98,5.04,-0.213,-0.034,-0.784
-0.961,-0.053,-0.103,0.07,-0.63,4.9,-0.213,-0.032,-0.788
-0.947,-0.046,-0.107,0.7,-1.75,3.57,-0.215,-0.034,-0.788
-0.963,-0.05,-0.116,3.36,-2.38,3.64,-0.216,-0.034,-0.784
-0.975,-0.05,-0.116,5.88,-2.66,3.71,-0.216,-0.035,-0.785
-0.995,-0.047,-0.114,7.77,-2.94,3.15,-0.213,-0.034,-0.789
-1.021,-0.049,-0.107,8.47,-2.94,1.75,-0.214,-0.034,-0.787
-1.037,-0.053,-0.11,5.39,-1.96,-1.89,-0.21,-0.035,-0.786
-1.034,-0.068,-0.109,-1.96,-1.12,-4.55,-0.213,-0.032,-0.783
-0.996,-0.066,-0.11,-8.33,-0.07,-6.3,-0.213,-0.037,-0.785
-0.976,-0.061,-0.114,-11.69,-0.14,-8.4,-0.21,-0.031,-0.787
-0.962,-0.058,-0.117,-10.78,-0.56,-8.61,-0.212,-0.034,-0.789
-0.943,-0.052,-0.121,-6.3,-1.89,-6.72,-0.218,-0.036,-0.788
-0.949,-0.043,-0.127,0.35,-3.15,-4.76,-0.213,-0.033,-0.789
-0.974,-0.054,-0.131,8.33,-4.69,-2.1,-0.215,-0.036,-0.792
-1.007,-0.069,-0.135,11.55,-5.46,-0.42,-0.214,-0.031,-0.787
-1.012,-0.068,-0.136,8.26,-5.81,-0.63,-0.21,-0.039,-0.783
-1.003,-0.068,-0.118,5.04,-6.23,-2.17,-0.215,-0.037,-0.785
-0.986,-0.079,-0.109,3.78,-6.44,-3.71,-0.215,-0.039,-0.789
-0.983,-0.08,-0.112,0.56,-6.16,-4.69,-0.211,-0.038,-0.786
-0.994,-0.085,-0.107,-1.19,-5.46,-4.83,-0.213,-0.037,-0.786
-1.016,-0.079,-0.103,-1.68,-4.34,-4.41,-0.215,-0.039,-0.785
-1.048,-0.093,-0.086,-1.4,-3.5,-3.71,-0.215,-0.04,-0.787
-1.056,-0.102,-0.094,-3.5,-2.73,-2.94,-0.212,-0.039,-0.788
-1.041,-0.094,-0.102,-7.49,-1.61,-2.38,-0.213,-0.042,-0.791
-1.02,-0.067,-0.099,-8.33,-1.61,-1.47,-0.213,-0.042,-0.789
-1.012,-0.054,-0.096,-3.99,-2.94,-0.91,-0.212,-0.039,-0.79
-1.004,-0.064,-0.089,4.97,-4.97,0.28,-0.212,-0.039,-0.789
-1.004,-0.085,-0.072,5.74,-5.18,0.07,-0.212,-0.039,-0.786
-1.0,-0.091,-0.083,2.17,-4.34,-0.42,-0.213,-0.038,-0.792
-0.983,-0.089,-0.091,-2.03,-2.38,-0.35,-0.213,-0.038,-0.791
-0.978,-0.062,-0.1,-4.27,-0.98,0.35,-0.215,-0.041,-0.784
-0.986,-0.053,-0.108,-2.17,-0.49,1.19,-0.213,-0.037,-0.784
-0.989,-0.059,-0.119,1.33,-0.98,2.24,-0.212,-0.038,-0.786
-0.998,-0.061,-0.126,2.38,-2.45,1.89,-0.21,-0.04,-0.787
-1.02,-0.048,-0.136,1.54,-3.43,1.4,-0.211,-0.038,-0.789
-1.039,-0.046,-0.132,1.47,-4.06,1.12,-0.208,-0.042,-0.79
-1.036,-0.044,-0.13,2.31,-4.13,1.26,-0.212,-0.039,-0.783
-1.034,-0.04,-0.128,2.03,-4.2,0.35,-0.213,-0.042,-0.786
-1.014,-0.053,-0.116,1.4,-4.06,-0.49,-0.211,-0.035,-0.783
-0.991,-0.062,-0.108,-1.26,-4.13,-1.75,-0.213,-0.042,-0.782
-0.97,-0.063,-0.11,-4.06,-4.13,-2.03,-0.209,-0.038,-0.784
-0.965,-0.053,-0.112,-3.29,-3.99,-0.56,-0.21,-0.04,-0.785
-0.979,-0.044,-0.11,2.73,-4.55,2.31,-0.213,-0.038,-0.784
-0.995,-0.048,-0.102,5.95,-4.9,3.43,-0.211,-0.041,-0.783
-1.0,-0.053,-0.1,6.09,-4.34,2.73,-0.212,-0.044,-0.779
-1.0,-0.055,-0.1,3.99,-3.92,1.47,-0.217,-0.046,-0.781
-1.013,-0.051,-0.104,1.33,-3.78,0.28,-0.21,-0.042,-0.779
-1.017,-0.049,-0.095,0.21,-3.15,-1.05,-0.208,-0.042,-0.784
-1.008,-0.048,-0.101,0.07,-2.66,-2.03,-0.21,-0.043,-0.784
-0.982,-0.056,-0.108,2.03,-2.73,-1.89,-0.214,-0.045,-0.782
-0.977,-0.056,-0.104,2.66,-3.08,-1.61,-0.217,-0.042,-0.781
-0.98,-0.047,-0.104,3.57,-3.15,-1.4,-0.212,-0.045,-0.777
-1.0,-0.055,-0.101,5.11,-3.08,-1.4,-0.215,-0.038,-0.781
-1.015,-0.083,-0.11,4.97,-2.38,-1.26,-0.216,-0.042,-0.789
-1.022,-0.081,-0.118,-1.61,17.29,-1.61,-0.214,-0.042,-0.789
-1.016,-0.034,-0.131,-8.82,1.33,-1.4,-0.21,-0.042,-0.78
-1.005,-0.019,-0.131,-6.02,1.05,-1.4,-0.211,-0.04,-0.784
-0.99,-0.032,-0.13,-0.07,-0.42,-1.05,-0.215,-0.038,-0.781
-0.99,-0.045,-0.124,3.29,-2.03,-1.26,-0.21,-0.042,-0.784
-0.997,-0.067,-0.126,3.15,-2.8,-2.66,-0.211,-0.041,-0.782
-0.988,-0.07,-0.13,-0.91,-2.94,-3.57,-0.211,-0.042,-0.784
-0.991,-0.06,-0.117,-0.63,-2.94,-3.64,-0.213,-0.043,-0.782
-1.004,-0.063,-0.119,1.61,-3.22,-2.45,-0.216,-0.04,-0.782
-1.02,-0.075,-0.12,3.43,-3.29,-1.68,-0.213,-0.043,-0.779
-1.018,-0.085,-0.119,0.84,-2.73,-1.4,-0.218,-0.044,-0.785
-1.0,-0.079,-0.121,-3.85,-2.24,-1.96,-0.214,-0.043,-0.785
-0.984,-0.062,-0.116,-5.25,-2.66,-1.96,-0.217,-0.042,-0.788
-0.991,-0.052,-0.12,-1.89,-3.5,-0.63,-0.215,-0.044,-0.784
-1.007,-0.06,-0.118,3.29,-4.41,0.21,-0.219,-0.043,-0.783
-1.016,-0.071,-0.114,5.53,-4.69,0.84,-0.217,-0.045,-0.777
-1.024,-0.081,-0.108,3.22,-4.62,-0.21,-0.216,-0.047,-0.78
-1.025,-0.083,-0.1,0.7,-3.99,0.14,-0.214,-0.044,-0.788
-1.022,-0.07,-0.101,-2.17,-3.01,0.42,-0.218,-0.041,-0.786
-1.001,-0.06,-0.096,-3.08,-2.38,0.7,-0.216,-0.043,-0.786
-0.996,-0.059,-0.098,-4.2,-2.1,-0.98,-0.215,-0.039,-0.781
-1.001,-0.063,-0.098,-4.27,-1.75,-1.61,-0.213,-0.044,-0.788
-1.012,-0.072,-0.096,-5.11,-1.33,-1.75,-0.218,-0.038,-0.784
-0.985,-0.081,-0.097,-5.46,-0.63,-0.21,-0.216,-0.04,-0.786
-0.965,-0.061,-0.103,-5.32,-1.12,-0.21,-0.214,-0.043,-0.784
-0.98,-0.055,-0.107,-3.36,-1.89,0.14,-0.218,-0.036,-0.786
-1.012,-0.041,-0.108,-1.12,-2.66,0.77,-0.217,-0.039,-0.789
-1.051,-0.037,-0.091,2.45,-2.59,1.26,-0.219,-0.04,-0.796
-1.063,-0.045,-0.09,3.5,-1.54,1.4,-0.215,-0.04,-0.787
-1.033,-0.069,-0.102,-2.03,0.35,-0.21,-0.22,-0.036,-0.79
-0.988,-0.036,-0.109,-11.83,1.19,-2.52,-0.218,-0.038,-0.785
-0.948,-0.037,-0.112,-10.71,-0.35,-2.17,-0.221,-0.033,-0.789
-0.95,-0.029,-0.112,-2.59,-2.52,0.21,-0.222,-0.032,-0.793
-0.988,-0.022,-0.111,6.02,-4.48,2.52,-0.219,-0.035,-0.801
-1.032,-0.028,-0.106,11.83,-5.18,3.36,-0.22,-0.035,-0.793
-1.064,-0.04,-0.105,8.54,-3.57,2.45,-0.217,-0.037,-0.79
-1.03,-0.055,-0.114,0.91,-1.82,0.84,-0.217,-0.038,-0.788
-0.965,-0.042,-0.117,-5.74,-1.12,-1.26,-0.213,-0.034,-0.791
-0.946,-0.018,-0.116,-7.07,-2.59,-3.5,-0.218,-0.032,-0.788
-0.989,-0.014,-0.121,-0.56,-4.83,-4.13,-0.217,-0.037,-0.788
-1.056,-0.015,-0.129,13.37,-6.79,-1.82,-0.216,-0.037,-0.791
-1.166,-0.05,-0.123,16.59,-6.02,-2.17,-0.214,-0.036,-0.787
-1.187,-0.092,-0.142,10.08,-3.78,-4.83,-0.219,-0.039,-0.793
-1.148,-0.11,-0.154,-2.24,-1.54,-8.26,-0.218,-0.042,-0.786
-1.109,-0.094,-0.146,-11.83,-0.98,-11.41,-0.219,-0.043,-0.784
-1.098,-0.092,-0.148,-8.4,-3.08,-13.79,-0.221,-0.043,-0.789
-1.123,-0.112,-0.16,-1.33,-5.11,-14.21,-0.218,-0.043,-0.784
-1.146,-0.134,-0.151,5.6,-6.58,-13.79,-0.218,-0.048,-0.786
-1.178,-0.156,-0.146,8.47,-6.09,-13.37,-0.22,-0.049,-0.781
-1.181,-0.181,-0.149,6.02,-4.27,-13.16,-0.221,-0.049,-0.783
-1.156,-0.177,-0.147,-3.01,-1.82,-13.3,-0.221,-0.054,-0.784
-1.126,-0.15,-0.15,-4.9,-1.61,-13.86,-0.22,-0.052,-0.786
-1.123,-0.137,-0.153,-2.66,-2.31,-14.14,-0.217,-0.052,-0.78
-1.141,-0.126,-0.145,0.42,-3.57,-14.42,-0.215,-0.06,-0.785
-1.161,-0.127,-0.133,3.57,-4.55,-14.63,-0.216,-0.06,-0.785
-1.17,-0.118,-0.126,5.95,-4.83,-14.84,-0.217,-0.062,-0.783
-1.174,-0.107,-0.11,6.02,-3.36,-17.01,-0.219,-0.064,-0.785
-1.134,-0.107,-0.096,4.41,-1.82,-18.76,-0.221,-0.067,-0.782
-1.092,-0.109,-0.088,0.91,-0.42,-21.42,-0.223,-0.074,-0.783
-1.063,-0.097,-0.082,-2.31,0.42,-23.73,-0.22,-0.074,-0.779
-1.065,-0.076,-0.079,-2.38,0.98,-24.78,-0.222,-0.078,-0.792
-1.076,-0.057,-0.077,0.21,1.12,-25.69,-0.223,-0.077,-0.789
-1.064,-0.064,-0.074,7.28,1.26,-26.6,-0.224,-0.088,-0.791
-1.067,-0.073,-0.075,7.7,2.24,-28.07,-0.222,-0.084,-0.793
-1.051,-0.071,-0.073,6.09,3.29,-29.61,-0.22,-0.088,-0.792
-1.037,-0.062,-0.067,4.97,3.92,-30.52,-0.228,-0.097,-0.793
-1.043,-0.052,-0.067,4.9,4.41,-31.64,-0.226,-0.101,-0.79
-1.05,-0.046,-0.077,4.76,5.25,-32.41,-0.226,-0.109,-0.794
-1.016,-0.048,-0.063,4.62,6.51,-32.55,-0.227,-0.111,-0.791
-0.986,-0.033,-0.062,3.57,6.79,-32.62,-0.227,-0.114,-0.792
-0.977,-0.01,-0.062,2.87,7.14,-33.46,-0.224,-0.121,-0.796
-0.98,0.004,-0.063,5.39,7.21,-33.39,-0.226,-0.124,-0.794
-0.99,0.024,-0.073,8.05,7.35,-32.83,-0.222,-0.126,-0.793
-0.994,0.025,-0.075,11.69,7.49,-33.18,-0.224,-0.134,-0.797
-0.966,0.053,-0.082,13.23,7.21,-33.11,-0.229,-0.143,-0.796
-0.937,0.074,-0.082,16.66,5.67,-33.6,-0.227,-0.146,-0.802
-0.934,0.107,-0.08,21.35,3.36,-33.74,-0.225,-0.147,-0.799
-0.958,0.129,-0.06,27.79,1.05,-35.49,-0.227,-0.165,-0.801
-0.98,0.134,-0.051,33.46,2.31,-38.92,-0.227,-0.166,-0.802
-0.987,0.122,-0.058,29.26,4.48,-41.51,-0.226,-0.171,-0.806
-0.997,0.103,-0.067,19.46,6.86,-43.33,-0.228,-0.175,-0.812
-1.021,0.109,-0.074,3.43,8.89,-43.54,-0.227,-0.189,-0.814
-1.032,0.157,-0.081,-12.18,10.22,-42.07,-0.225,-0.193,-0.813
-1.022,0.229,-0.039,-20.37,8.12,-35.21,-0.224,-0.196,-0.814
-0.985,0.331,-0.025,-13.51,5.6,-29.54,-0.226,-0.192,-0.815
-0.897,0.359,-0.024,-4.62,3.43,-24.64,-0.226,-0.198,-0.816
-0.818,0.38,-0.025,4.41,0.91,-20.86,-0.226,-0.204,-0.818
-0.772,0.398,-0.01,11.97,-1.26,-18.48,-0.223,-0.205,-0.821
-0.744,0.409,0.0,17.36,-2.24,-16.52,-0.223,-0.21,-0.816
-0.752,0.417,0.011,20.79,-1.89,-12.6,-0.221,-0.217,-0.819
-0.836,0.431,-0.011,17.43,1.12,-9.87,-0.219,-0.215,-0.822
-0.864,0.426,-0.041,10.71,3.57,-5.46,-0.224,-0.22,-0.82
-0.848,0.436,-0.056,3.01,5.46,-2.24,-0.224,-0.218,-0.825
-0.821,0.471,-0.068,-2.8,5.46,-0.14,-0.221,-0.217,-0.828
-0.801,0.5,-0.076,-3.29,3.36,-0.07,-0.227,-0.221,-0.826
-0.779,0.503,-0.082,6.86,-1.68,-0.84,-0.225,-0.221,-0.829
-0.778,0.476,-0.091,15.61,-5.32,-2.38,-0.223,-0.22,-0.828
-0.787,0.452,-0.099,19.39,-7.91,-4.48,-0.224,-0.221,-0.828
-0.779,0.424,-0.096,18.41,-9.38,-6.3,-0.22,-0.23,-0.83
-0.773,0.41,-0.084,14.21,-10.64,-9.03,-0.223,-0.227,-0.828
-0.773,0.411,-0.074,8.61,-11.2,-11.76,-0.221,-0.233,-0.825
-0.784,0.412,-0.07,2.66,-10.01,-13.23,-0.22,-0.23,-0.827
-0.805,0.402,-0.071,-1.33,-8.26,-12.95,-0.221,-0.239,-0.818
-0.819,0.395,-0.067,-6.93,-5.32,-11.34,-0.218,-0.233,-0.824
-0.82,0.401,-0.062,-12.95,-2.8,-9.17,-0.218,-0.238,-0.819
-0.805,0.411,-0.06,-18.13,-0.7,-7.07,-0.224,-0.236,-0.817
-0.803,0.443,-0.072,-21.28,1.26,-4.9,-0.216,-0.236,-0.818
-0.824,0.446,-0.069,-19.6,1.68,-4.27,-0.217,-0.234,-0.82
-0.845,0.446,-0.064,-18.83,2.03,-3.01,-0.224,-0.234,-0.823
-0.864,0.442,-0.058,-21.14,1.75,-3.43,-0.226,-0.228,-0.826
-0.853,0.441,-0.051,-25.76,1.75,-4.83,-0.224,-0.236,-0.822
-0.833,0.449,-0.045,-32.76,0.21,-8.96,-0.226,-0.237,-0.791
-0.836,0.46,-0.05,-33.04,-1.89,-11.48,-0.224,-0.225,-0.818
