ax,ay,az,gx,gy,gz,mx,my,mz
-0.931,0.38,-0.025,-1.26,-3.01,0.77,-0.209,-0.265,-0.805
-0.933,0.378,-0.02,-1.19,-2.94,0.63,-0.211,-0.266,-0.801
-0.934,0.37,-0.015,-1.33,-2.87,0.35,-0.211,-0.266,-0.806
-0.954,0.362,0.001,-4.69,-2.31,-0.28,-0.214,-0.265,-0.8
-0.96,0.365,0.001,-8.19,-1.33,-0.42,-0.212,-0.265,-0.8
-0.962,0.388,-0.002,-12.04,-0.56,-0.77,-0.21,-0.266,-0.807
-0.969,0.405,0.017,-15.54,-0.42,-1.61,-0.213,-0.264,-0.8
-0.945,0.409,0.039,-18.55,0.84,-4.62,-0.211,-0.263,-0.796
-0.927,0.417,0.039,-21.49,2.87,-6.23,-0.213,-0.264,-0.801
-0.917,0.437,0.033,-18.48,3.71,-8.61,-0.207,-0.26,-0.801
-0.91,0.426,0.019,-11.97,3.64,-9.59,-0.208,-0.263,-0.803
-0.908,0.395,-0.015,-6.44,2.8,-8.47,-0.205,-0.262,-0.8
-0.906,0.373,-0.024,-3.64,1.4,-7.21,-0.205,-0.264,-0.8
-0.894,0.358,-0.028,-3.57,-1.4,-9.03,-0.21,-0.262,-0.801
-0.88,0.351,-0.042,-3.36,-3.08,-8.61,-0.208,-0.268,-0.806
-0.876,0.362,-0.042,-4.48,-5.18,-9.24,-0.208,-0.265,-0.8
-0.892,0.379,-0.036,-2.52,-7.0,-8.33,-0.208,-0.268,-0.799
-0.903,0.378,-0.022,0.77,-8.4,-7.63,-0.205,-0.272,-0.795
-0.898,0.369,-0.009,0.63,-8.4,-6.72,-0.21,-0.269,-0.796
-0.869,0.382,-0.005,-2.73,-7.98,-5.53,-0.204,-0.27,-0.793
-0.773,0.396,-0.031,-2.24,-8.96,-5.39,-0.203,-0.272,-0.799
-0.745,0.417,-0.058,2.45,-12.11,-5.81,-0.203,-0.269,-0.795
-0.795,0.424,-0.066,9.66,-15.68,-6.09,-0.205,-0.271,-0.794
-0.9,0.421,-0.047,16.24,-17.5,-4.48,-0.201,-0.273,-0.793
-0.965,0.419,-0.046,19.18,-14.84,-0.07,-0.205,-0.275,-0.794
-0.976,0.418,-0.061,18.41,-9.38,7.35,-0.206,-0.276,-0.799
-0.997,0.446,-0.073,11.97,-5.32,9.66,-0.205,-0.279,-0.798
-1.031,0.468,-0.079,9.1,-1.82,10.85,-0.203,-0.278,-0.797
-1.024,0.466,-0.089,4.62,1.82,10.71,-0.203,-0.273,-0.799
-0.985,0.449,-0.097,-1.05,3.64,8.61,-0.2,-0.276,-0.792
-0.925,0.444,-0.109,-5.11,2.59,5.53,-0.201,-0.271,-0.796
-0.863,0.438,-0.12,-8.19,-0.84,1.4,-0.202,-0.267,-0.799
-0.817,0.431,-0.101,-9.1,-6.86,-3.78,-0.2,-0.274,-0.798
-0.793,0.45,-0.082,-6.51,-10.08,-4.69,-0.201,-0.273,-0.797
-0.816,0.451,-0.07,-0.77,-12.32,-4.34,-0.203,-0.276,-0.793
-0.838,0.442,-0.057,5.53,-11.13,-1.33,-0.2,-0.27,-0.795
-0.839,0.426,-0.048,7.07,-7.49,1.54,-0.197,-0.271,-0.797
-0.831,0.421,-0.048,2.87,-3.92,3.71,-0.2,-0.271,-0.793
-0.828,0.418,-0.052,-4.9,-0.35,3.01,-0.199,-0.267,-0.797
-0.836,0.448,-0.075,-17.85,4.13,0.21,-0.197,-0.267,-0.796
-0.856,0.472,-0.09,-21.07,5.6,-1.12,-0.2,-0.264,-0.794
-0.886,0.477,-0.094,-19.25,5.67,-1.47,-0.196,-0.266,-0.793
-0.894,0.477,-0.095,-16.45,5.81,-1.05,-0.197,-0.264,-0.791
-0.872,0.472,-0.098,-16.66,5.95,-4.13,-0.2,-0.269,-0.798
-0.844,0.476,-0.089,-20.51,4.34,-6.44,-0.199,-0.262,-0.798
-0.847,0.485,-0.083,-22.4,3.5,-9.45,-0.199,-0.268,-0.802
-0.87,0.49,-0.079,-22.47,2.45,-10.99,-0.2,-0.262,-0.801
-0.89,0.485,-0.068,-20.86,3.22,-11.48,-0.196,-0.267,-0.8
-0.885,0.473,-0.065,-16.38,4.83,-8.89,-0.201,-0.264,-0.799
-0.867,0.411,-0.033,-14.0,6.37,-6.65,-0.203,-0.271,-0.8
-0.883,0.391,-0.017,-20.58,7.77,-5.11,-0.198,-0.267,-0.796
-0.896,0.402,-0.051,-28.42,10.15,-3.85,-0.201,-0.269,-0.795
-0.915,0.444,-0.08,-34.37,11.48,0.49,-0.203,-0.261,-0.8
-0.919,0.473,-0.084,-37.66,12.25,4.27,-0.206,-0.261,-0.798
-0.907,0.497,-0.076,-33.95,12.67,9.94,-0.205,-0.254,-0.797
-0.918,0.509,-0.07,-24.71,12.74,11.06,-0.205,-0.254,-0.803
-0.911,0.481,-0.068,-23.31,13.65,11.97,-0.208,-0.252,-0.798
-0.887,0.467,-0.085,-29.47,13.44,10.99,-0.21,-0.248,-0.797
-0.868,0.473,-0.1,-36.68,11.9,10.71,-0.209,-0.246,-0.798
-0.868,0.513,-0.098,-40.25,9.94,11.9,-0.211,-0.238,-0.797
-0.882,0.534,-0.1,-33.81,9.03,13.79,-0.21,-0.241,-0.798
-0.882,0.522,-0.113,-20.23,7.77,21.63,-0.214,-0.23,-0.802
-0.877,0.47,-0.139,-9.87,5.67,26.46,-0.215,-0.226,-0.801
-0.972,0.462,-0.106,-10.71,3.85,30.59,-0.214,-0.227,-0.801
-0.969,0.391,-0.113,-3.57,2.94,35.84,-0.217,-0.218,-0.799
-0.897,0.335,-0.086,2.87,1.33,45.78,-0.217,-0.214,-0.801
-0.823,0.3,-0.117,2.1,-1.89,46.83,-0.22,-0.203,-0.803
-0.766,0.307,-0.1,6.65,-5.11,50.61,-0.223,-0.197,-0.801
-0.757,0.348,-0.023,28.84,-9.1,49.56,-0.22,-0.196,-0.802
-0.837,0.271,0.028,43.61,-10.29,50.12,-0.222,-0.186,-0.8
-0.928,0.206,0.015,40.95,-8.12,48.79,-0.222,-0.181,-0.799
-0.994,0.182,-0.005,20.79,-3.15,49.28,-0.228,-0.175,-0.805
-0.958,0.201,-0.05,-3.22,3.08,47.81,-0.224,-0.172,-0.804
-0.856,0.24,-0.06,-13.02,4.62,44.17,-0.227,-0.168,-0.808
-0.865,0.276,-0.042,-6.09,1.33,40.6,-0.228,-0.162,-0.811
-0.903,0.261,-0.024,9.31,-0.98,37.17,-0.224,-0.155,-0.804
-0.964,0.212,-0.017,23.1,-1.89,35.63,-0.228,-0.152,-0.808
-1.001,0.109,-0.026,26.6,0.07,30.38,-0.23,-0.151,-0.807
-0.985,0.02,-0.065,7.42,3.78,25.55,-0.233,-0.149,-0.807
-0.956,0.01,-0.059,-16.59,4.55,20.72,-0.228,-0.145,-0.809
-0.936,0.059,-0.053,-31.29,4.69,17.22,-0.229,-0.138,-0.806
-0.928,0.086,-0.064,-25.55,2.66,17.29,-0.229,-0.134,-0.809
-0.946,0.075,-0.083,-9.52,-0.35,18.27,-0.229,-0.131,-0.812
-0.981,0.03,-0.104,12.04,-4.2,21.7,-0.223,-0.131,-0.812
-0.998,-0.038,-0.099,19.46,-6.02,24.29,-0.231,-0.129,-0.812
-0.996,-0.057,-0.087,18.48,-7.14,25.76,-0.229,-0.127,-0.812
-1.002,-0.033,-0.083,14.21,-8.61,26.04,-0.227,-0.124,-0.806
-1.0,0.004,-0.064,14.63,-9.52,26.18,-0.23,-0.119,-0.808
-1.007,0.028,-0.04,22.96,-10.22,25.2,-0.233,-0.122,-0.806
-1.028,-0.004,-0.049,21.7,-8.89,21.28,-0.223,-0.117,-0.803
-1.015,-0.034,-0.048,11.34,-5.95,17.99,-0.229,-0.117,-0.798
-0.998,-0.018,-0.03,-5.67,-2.94,13.3,-0.228,-0.111,-0.802
-0.95,0.004,-0.032,-17.29,-1.19,10.71,-0.225,-0.112,-0.801
-0.934,0.018,-0.05,-15.96,-1.75,10.92,-0.227,-0.107,-0.805
-0.956,0.045,-0.063,-4.13,-3.43,14.21,-0.228,-0.104,-0.795
-0.991,0.019,-0.065,7.98,-4.48,14.56,-0.227,-0.105,-0.798
-1.036,-0.027,-0.075,15.61,-4.83,15.4,-0.228,-0.104,-0.797
-1.095,-0.062,-0.083,9.03,-3.43,12.6,-0.228,-0.107,-0.799
-1.105,-0.069,-0.089,-3.15,-1.12,10.29,-0.226,-0.104,-0.795
-1.077,-0.024,-0.092,-11.97,0.56,8.54,-0.228,-0.099,-0.795
-1.061,0.002,-0.096,-12.11,-1.75,5.18,-0.235,-0.095,-0.794
-1.065,0.01,-0.123,-2.03,-4.13,4.13,-0.227,-0.093,-0.799
-1.078,-0.013,-0.097,6.44,-5.67,3.71,-0.229,-0.098,-0.798
-1.107,-0.036,-0.038,12.18,-6.02,4.97,-0.23,-0.098,-0.802
-1.138,-0.058,-0.024,9.8,-4.13,5.32,-0.23,-0.094,-0.801
-1.116,-0.051,-0.025,0.49,-0.84,6.72,-0.231,-0.095,-0.805
-1.079,-0.015,-0.024,-9.87,0.91,8.68,-0.224,-0.09,-0.802
-1.054,0.021,-0.015,-6.23,-0.07,9.03,-0.227,-0.09,-0.802
-1.054,0.039,-0.003,0.77,-1.82,9.38,-0.228,-0.09,-0.797
-1.069,0.026,0.001,6.3,-2.66,8.12,-0.231,-0.087,-0.801
-1.066,0.005,-0.001,8.75,-1.96,8.82,-0.228,-0.085,-0.796
-1.055,0.0,-0.003,8.68,-0.91,9.73,-0.234,-0.085,-0.799
-1.073,0.022,-0.025,11.48,-0.21,10.57,-0.231,-0.085,-0.802
-1.084,0.001,-0.037,15.33,-0.63,10.22,-0.234,-0.081,-0.802
-1.082,-0.024,-0.05,15.05,-0.56,8.89,-0.23,-0.087,-0.803
-1.081,-0.039,-0.053,10.36,-0.49,6.58,-0.231,-0.083,-0.8
-1.074,-0.04,-0.06,6.44,0.0,5.81,-0.229,-0.087,-0.808
-1.077,-0.04,-0.072,4.69,0.07,5.25,-0.229,-0.084,-0.806
-1.094,-0.037,-0.078,3.08,-0.21,4.41,-0.231,-0.085,-0.805
-1.093,-0.047,-0.077,2.03,-0.77,3.43,-0.23,-0.083,-0.802
-1.069,-0.048,-0.078,-0.35,-0.84,2.45,-0.227,-0.082,-0.806
-1.029,-0.049,-0.073,-2.24,-0.91,0.98,-0.226,-0.088,-0.807
-0.996,-0.023,-0.079,-3.15,-2.1,0.91,-0.227,-0.088,-0.805
-0.995,-0.001,-0.077,-0.56,-4.34,-0.14,-0.232,-0.085,-0.805
-1.012,-0.012,-0.039,7.91,-7.0,0.21,-0.231,-0.085,-0.803
-1.002,-0.046,-0.042,9.17,-6.79,0.28,-0.234,-0.081,-0.797
-0.99,-0.052,-0.04,6.79,-5.81,1.75,-0.231,-0.083,-0.8
-0.997,-0.035,-0.044,2.17,-4.76,2.87,-0.223,-0.083,-0.805
-1.004,-0.021,-0.056,-1.33,-4.13,3.22,-0.231,-0.088,-0.805
-1.002,-0.018,-0.073,-3.01,-3.57,3.36,-0.226,-0.082,-0.797
-1.009,0.005,-0.081,-1.89,-5.11,4.97,-0.225,-0.081,-0.8
-1.032,0.029,-0.073,3.01,-6.23,6.02,-0.23,-0.081,-0.804
-1.03,0.037,-0.074,8.82,-7.21,7.14,-0.228,-0.079,-0.808
-1.035,0.02,-0.082,13.37,-8.12,6.02,-0.232,-0.084,-0.8
-1.052,0.015,-0.083,13.93,-8.4,4.9,-0.227,-0.085,-0.798
-1.073,-0.003,-0.071,8.96,-7.7,1.19,-0.225,-0.083,-0.794
-1.07,-0.022,-0.069,1.96,-5.67,-1.33,-0.227,-0.08,-0.788
-1.063,-0.009,-0.072,-2.1,-4.13,-2.8,-0.224,-0.082,-0.793
-1.067,-0.002,-0.076,-0.42,-3.71,-2.8,-0.231,-0.086,-0.794
-1.082,-0.013,-0.082,2.1,-4.27,-3.36,-0.229,-0.081,-0.793
-1.089,-0.029,-0.08,1.47,-4.2,-4.62,-0.226,-0.087,-0.792
-1.084,-0.022,-0.073,-2.17,-4.48,-5.11,-0.227,-0.086,-0.799
-1.056,-0.021,-0.046,-2.38,-4.41,-5.74,-0.227,-0.082,-0.796
-1.023,-0.016,-0.039,-3.92,-4.13,-5.53,-0.227,-0.084,-0.791
-0.994,-0.017,-0.036,-2.31,-4.34,-4.62,-0.225,-0.084,-0.792
-0.989,-0.014,-0.035,-1.19,-4.48,-3.22,-0.226,-0.086,-0.797
-0.995,-0.005,-0.038,-1.26,-3.57,-1.4,-0.226,-0.083,-0.793
-1.009,0.027,-0.052,-3.99,-2.45,-0.84,-0.224,-0.082,-0.803
-1.018,0.041,-0.064,-3.85,-1.82,-0.91,-0.227,-0.088,-0.799
-1.012,0.035,-0.073,-1.75,-1.82,-0.84,-0.23,-0.083,-0.8
-1.005,0.037,-0.079,0.56,-2.03,-0.7,-0.227,-0.082,-0.792
-1.019,0.042,-0.075,2.31,-2.45,-1.12,-0.227,-0.087,-0.795
-1.027,0.029,-0.071,5.25,-3.22,-1.89,-0.226,-0.087,-0.797
-1.034,0.006,-0.07,4.34,-3.08,-3.36,-0.229,-0.086,-0.797
-1.036,0.005,-0.065,1.89,-3.08,-3.92,-0.226,-0.085,-0.793
-1.04,0.012,-0.058,-0.56,-2.52,-4.2,-0.229,-0.085,-0.797
-1.037,0.019,-0.056,-0.7,-2.24,-4.41,-0.224,-0.09,-0.797
-1.028,0.02,-0.052,0.63,-2.31,-4.34,-0.226,-0.089,-0.796
-1.02,0.01,-0.049,3.99,-2.87,-4.27,-0.224,-0.09,-0.794
-1.025,0.002,-0.054,6.86,-3.36,-3.36,-0.223,-0.092,-0.798
-1.023,-0.016,-0.054,7.56,-3.5,-2.31,-0.226,-0.089,-0.793
-1.0,-0.022,-0.055,3.43,-3.01,-2.1,-0.226,-0.087,-0.798
-0.981,-0.006,-0.053,0.28,-2.73,-1.33,-0.226,-0.092,-0.797
-0.987,0.018,-0.06,-0.28,-3.08,-0.91,-0.229,-0.094,-0.797
-0.993,0.018,-0.067,2.45,-3.15,0.28,-0.228,-0.089,-0.797
-1.006,0.017,-0.08,2.59,-3.01,0.56,-0.222,-0.093,-0.805
-0.993,0.012,-0.085,-0.07,-1.96,-0.14,-0.22,-0.093,-0.804
-0.971,0.01,-0.094,-2.59,-2.1,-0.7,-0.223,-0.091,-0.801
-0.968,0.013,-0.096,-2.87,-2.45,-0.21,-0.222,-0.092,-0.802
-0.991,0.029,-0.096,-1.96,-2.8,0.91,-0.222,-0.093,-0.803
-1.004,0.028,-0.089,1.54,-3.01,3.36,-0.229,-0.087,-0.802
-0.996,0.016,-0.09,3.36,-2.87,3.92,-0.228,-0.089,-0.795
-0.995,0.017,-0.086,1.12,-2.73,3.22,-0.222,-0.087,-0.799
-0.986,0.022,-0.077,-1.96,-2.73,1.89,-0.225,-0.086,-0.798
-0.981,0.028,-0.068,-4.13,-2.73,0.49,-0.225,-0.085,-0.799
-0.99,0.036,-0.067,-3.15,-3.22,0.14,-0.227,-0.087,-0.797
-1.015,0.028,-0.061,0.84,-4.34,-0.21,-0.225,-0.089,-0.802
-1.039,0.026,-0.064,1.33,-4.06,-0.56,-0.227,-0.086,-0.8
-1.045,0.03,-0.057,0.21,-4.2,-1.4,-0.224,-0.088,-0.8
-1.03,0.039,-0.053,-0.63,-4.97,-2.52,-0.226,-0.089,-0.8
-1.005,0.048,-0.043,0.21,-5.74,-3.85,-0.228,-0.086,-0.797
-0.984,0.059,-0.032,1.61,-7.0,-4.55,-0.224,-0.091,-0.802
-0.942,0.045,-0.026,8.12,-9.17,-4.83,-0.223,-0.091,-0.796
-0.937,0.037,-0.038,12.81,-10.01,-4.62,-0.224,-0.091,-0.793
-0.966,0.035,-0.044,16.45,-10.36,-3.71,-0.227,-0.09,-0.793
-0.998,0.025,-0.053,18.55,-8.89,-2.94,-0.224,-0.096,-0.791
-1.023,0.01,-0.07,16.87,-5.46,-3.15,-0.224,-0.098,-0.791
-1.025,-0.025,-0.102,5.81,-3.01,-4.34,-0.224,-0.099,-0.791
-1.01,-0.028,-0.123,-2.87,-1.47,-4.62,-0.221,-0.1,-0.793
-0.989,-0.012,-0.125,-7.63,-0.91,-3.92,-0.225,-0.1,-0.795
-0.982,0.015,-0.114,-6.72,-1.96,-2.31,-0.224,-0.103,-0.795
-0.996,0.019,-0.115,-0.56,-3.5,-0.56,-0.221,-0.097,-0.79
-1.021,0.005,-0.113,5.6,-4.9,0.84,-0.224,-0.096,-0.787
-1.05,-0.016,-0.109,3.85,-4.41,0.21,-0.224,-0.098,-0.793
-1.062,-0.017,-0.1,-2.1,-3.22,-0.91,-0.22,-0.099,-0.793
-1.069,-0.01,-0.09,-7.98,-1.96,-2.17,-0.223,-0.101,-0.797
-1.074,0.0,-0.092,-11.55,-1.4,-2.45,-0.228,-0.099,-0.793
-1.078,0.021,-0.085,-12.67,-1.26,-2.03,-0.226,-0.098,-0.796
-1.062,0.033,-0.074,-10.99,-1.82,-1.19,-0.224,-0.098,-0.796
-1.017,0.035,-0.059,-7.14,-2.73,-0.7,-0.225,-0.095,-0.799
-0.989,0.044,-0.052,-5.39,-3.92,-0.63,-0.225,-0.098,-0.798
-0.977,0.071,-0.055,-2.38,-5.32,-0.77,-0.224,-0.099,-0.793
-0.982,0.097,-0.049,5.6,-7.0,-1.47,-0.222,-0.1,-0.796
-0.986,0.096,-0.038,18.9,-7.98,-0.49,-0.224,-0.102,-0.791
-0.986,0.051,-0.034,33.39,-7.56,1.33,-0.223,-0.099,-0.793
-0.972,-0.001,-0.045,31.57,-5.88,3.08,-0.223,-0.102,-0.793
-0.965,-0.021,-0.059,19.04,-3.78,3.57,-0.221,-0.108,-0.792
-0.99,0.009,-0.079,2.73,-1.68,3.22,-0.222,-0.106,-0.793
-1.014,0.034,-0.102,-5.74,0.07,1.75,-0.224,-0.101,-0.785
-1.016,0.05,-0.122,-7.56,0.91,1.47,-0.224,-0.099,-0.795
-1.003,0.03,-0.118,-6.44,-0.07,1.05,-0.224,-0.1,-0.792
-0.99,0.02,-0.106,-6.02,-1.75,1.47,-0.223,-0.1,-0.787
-0.989,0.01,-0.099,-7.63,-2.45,0.14,-0.223,-0.096,-0.79
-0.986,0.011,-0.091,-11.2,-2.59,-0.84,-0.22,-0.1,-0.791
-0.996,0.02,-0.085,-13.37,-2.45,-1.54,-0.217,-0.096,-0.79
-1.018,0.02,-0.082,-11.34,-2.66,-1.12,-0.22,-0.096,-0.791
-1.042,0.01,-0.081,-5.81,-2.38,1.12,-0.22,-0.095,-0.791
-1.038,0.014,-0.075,-6.51,-1.61,1.61,-0.222,-0.098,-0.793
-1.011,0.013,-0.068,-9.17,-1.26,1.47,-0.221,-0.098,-0.799
-0.982,0.015,-0.062,-11.9,-1.47,1.12,-0.223,-0.092,-0.797
-0.99,0.036,-0.058,-12.32,-2.17,1.75,-0.225,-0.094,-0.795
-1.014,0.055,-0.056,-4.97,-2.31,2.66,-0.224,-0.091,-0.799
-1.031,0.056,-0.067,1.12,-2.03,3.08,-0.224,-0.088,-0.801
-1.036,0.037,-0.075,3.29,-1.4,2.24,-0.222,-0.091,-0.798
-1.02,0.01,-0.071,1.47,-0.91,1.12,-0.222,-0.096,-0.796
-1.004,0.015,-0.071,-4.27,-0.63,-0.07,-0.223,-0.092,-0.793
-0.99,0.029,-0.072,-5.67,-1.12,-0.49,-0.226,-0.091,-0.791
-0.97,0.031,-0.073,2.38,-2.45,1.33,-0.222,-0.093,-0.796
-0.978,0.009,-0.069,5.95,-3.08,1.4,-0.227,-0.088,-0.79
-0.982,-0.001,-0.067,4.69,-2.66,1.12,-0.226,-0.09,-0.796
-0.977,-0.013,-0.074,-0.84,-1.75,-0.28,-0.226,-0.091,-0.798
-0.963,-0.001,-0.082,-5.81,-0.77,-0.63,-0.225,-0.093,-0.795
-0.961,0.025,-0.088,-6.51,-0.63,17.64,-0.227,-0.09,-0.793
-0.981,0.034,-0.099,0.7,-2.52,1.12,-0.228,-0.087,-0.793
-0.997,0.015,-0.097,5.25,-3.29,1.19,-0.226,-0.09,-0.794
-1.006,0.013,-0.095,4.62,-3.5,1.33,-0.225,-0.091,-0.796
-1.012,0.003,-0.082,0.7,-3.43,-0.35,-0.225,-0.091,-0.797
-0.997,0.005,-0.078,-5.18,-2.87,-1.89,-0.225,-0.091,-0.793
-0.972,0.028,-0.073,-7.7,-2.38,-2.8,-0.222,-0.094,-0.792
-0.965,0.058,-0.066,0.98,-2.73,0.84,-0.222,-0.091,-0.794
-0.959,0.033,-0.066,10.5,-3.92,3.29,-0.221,-0.089,-0.799
-0.962,0.021,-0.071,11.97,-4.9,4.83,-0.226,-0.093,-0.793
-0.987,0.026,-0.064,9.45,-5.18,3.71,-0.225,-0.089,-0.795
-1.018,0.039,-0.074,6.02,-4.55,2.45,-0.225,-0.087,-0.802
-1.073,0.033,-0.096,0.84,-3.5,-0.91,-0.225,-0.088,-0.796
-1.136,0.04,-0.11,-2.59,-2.94,-2.66,-0.226,-0.092,-0.795
-1.169,0.041,-0.113,-3.15,-2.87,-3.29,-0.225,-0.089,-0.796
-1.157,0.041,-0.11,-2.24,-2.94,-3.64,-0.225,-0.092,-0.788
-1.137,0.021,-0.097,-0.77,-3.85,-4.69,-0.224,-0.092,-0.789
-1.139,0.004,-0.114,-1.96,-4.76,-7.14,-0.227,-0.091,-0.791
-1.177,-0.011,-0.123,-2.59,-5.46,-8.26,-0.225,-0.091,-0.793
-1.199,-0.028,-0.123,-3.5,-5.18,-7.91,-0.228,-0.091,-0.793
-1.199,-0.031,-0.122,-4.97,-4.55,-7.7,-0.229,-0.092,-0.797
-1.192,-0.017,-0.122,-4.34,-4.62,-6.51,-0.229,-0.096,-0.789
-1.193,-0.019,-0.122,0.21,-5.6,-5.25,-0.227,-0.095,-0.795
-1.205,-0.012,-0.12,5.6,-6.65,-4.83,-0.227,-0.098,-0.793
-1.215,-0.034,-0.119,11.97,-7.0,-4.83,-0.223,-0.097,-0.79
-1.209,-0.05,-0.12,11.9,-6.44,-5.74,-0.224,-0.097,-0.786
-1.186,-0.058,-0.111,8.96,-5.88,-6.86,-0.218,-0.097,-0.783
-1.151,-0.052,-0.101,6.09,-5.25,-8.19,-0.224,-0.096,-0.785
-1.116,-0.056,-0.094,4.97,-5.67,-9.87,-0.223,-0.106,-0.786
-1.082,-0.058,-0.089,5.81,-6.16,-10.78,-0.226,-0.109,-0.781
-1.067,-0.055,-0.087,9.03,-6.93,-10.78,-0.222,-0.112,-0.784
-1.1,-0.037,-0.088,14.49,-7.07,-9.1,-0.222,-0.108,-0.784
-1.113,-0.052,-0.09,19.81,-6.37,-7.91,-0.222,-0.115,-0.783
-1.088,-0.064,-0.091,20.58,-5.04,-7.7,-0.219,-0.116,-0.783
-1.051,-0.071,-0.086,17.5,-4.13,-9.45,-0.217,-0.119,-0.776
-1.026,-0.066,-0.087,13.58,-3.71,-12.25,-0.219,-0.12,-0.779
-1.014,-0.061,-0.086,13.37,-3.01,-14.14,-0.22,-0.124,-0.782
-1.037,-0.057,-0.086,14.28,-2.17,-15.75,-0.22,-0.13,-0.782
-1.052,-0.071,-0.088,14.91,-1.19,-17.15,-0.229,-0.131,-0.773
-1.038,-0.081,-0.092,11.76,0.84,-18.34,-0.222,-0.134,-0.784
-1.015,-0.082,-0.087,7.21,2.24,-20.23,-0.224,-0.138,-0.785
-0.999,-0.056,-0.091,3.57,2.66,-21.7,-0.219,-0.143,-0.785
-0.985,-0.028,-0.096,6.58,2.73,-23.73,-0.222,-0.144,-0.788
-0.992,-0.022,-0.099,10.57,2.66,-24.78,-0.221,-0.147,-0.783
-0.997,-0.031,-0.107,13.02,2.31,-26.18,-0.22,-0.155,-0.791
-1.003,-0.027,-0.109,11.62,3.15,-27.16,-0.219,-0.156,-0.791
-1.002,-0.015,-0.106,8.96,3.22,-28.28,-0.224,-0.161,-0.794
-0.998,0.001,-0.102,7.63,3.64,-29.19,-0.215,-0.165,-0.789
-0.998,0.011,-0.099,7.28,3.92,-30.31,-0.218,-0.166,-0.789
-1.01,0.03,-0.096,4.9,4.48,-31.15,-0.223,-0.175,-0.799
-1.054,0.043,-0.085,2.24,5.53,-31.85,-0.219,-0.176,-0.794
-1.095,0.068,-0.076,-2.03,7.0,-32.06,-0.222,-0.183,-0.799
-1.107,0.088,-0.069,-7.42,8.54,-31.78,-0.221,-0.187,-0.804
-1.059,0.106,-0.062,-12.81,9.87,-30.66,-0.219,-0.193,-0.8
-0.982,0.133,-0.058,-17.01,8.75,-28.63,-0.222,-0.189,-0.803
-0.903,0.187,-0.047,-15.33,4.27,-26.67,-0.224,-0.194,-0.804
-0.874,0.213,-0.036,-8.26,0.63,-23.38,-0.224,-0.2,-0.801
-0.851,0.233,-0.021,0.35,-2.31,-19.04,-0.224,-0.2,-0.803
-0.828,0.246,-0.013,9.17,-3.64,-14.98,-0.222,-0.209,-0.8
-0.803,0.246,-0.013,16.45,-4.06,-10.71,-0.221,-0.208,-0.804
-0.787,0.256,-0.018,0.28,-3.29,-5.39,-0.22,-0.206,-0.809
-0.775,0.266,-0.014,12.11,-1.96,-3.43,-0.216,-0.209,-0.807
-0.801,0.291,-0.024,5.46,-0.28,-0.35,-0.217,-0.205,-0.809
-0.857,0.323,-0.042,-2.03,1.19,1.54,-0.217,-0.205,-0.809
-0.877,0.35,-0.07,-7.42,2.8,4.13,-0.215,-0.202,-0.813
-0.851,0.369,-0.083,-10.57,2.66,6.58,-0.219,-0.204,-0.811
-0.799,0.403,-0.091,-10.43,0.35,8.4,-0.218,-0.206,-0.81
-0.741,0.442,-0.077,-1.96,-4.97,8.26,-0.221,-0.202,-0.808
-0.735,0.455,-0.065,10.92,-8.89,7.14,-0.217,-0.198,-0.81
-0.753,0.451,-0.071,25.06,-11.34,5.04,-0.223,-0.203,-0.807
-0.795,0.429,-0.069,32.48,-11.9,2.52,-0.213,-0.205,-0.807
-0.836,0.391,-0.056,30.87,-9.59,-0.56,-0.22,-0.205,-0.809
-0.857,0.365,-0.05,14.21,-2.59,-5.04,-0.22,-0.212,-0.807
-0.848,0.36,-0.065,-0.28,1.47,-8.4,-0.221,-0.212,-0.811
-0.864,0.383,-0.07,-11.97,5.81,-12.53,-0.22,-0.214,-0.809
-0.895,0.398,-0.072,-18.48,8.61,-15.61,-0.22,-0.216,-0.814
-0.935,0.393,-0.086,-22.05,11.41,-18.2,-0.22,-0.219,-0.811
-0.977,0.378,-0.098,-25.9,13.09,-19.6,-0.224,-0.221,-0.815
-0.999,0.374,-0.105,-32.13,14.35,-20.65,-0.22,-0.226,-0.811
-0.987,0.374,-0.114,-40.46,14.49,-20.44,-0.219,-0.224,-0.815
-0.944,0.391,-0.128,-42.49,11.34,-20.09,-0.228,-0.219,-0.811
-0.916,0.407,-0.118,-40.11,7.63,-19.39,-0.222,-0.218,-0.82
-0.89,0.423,-0.098,-33.88,2.52,-18.34,-0.223,-0.218,-0.814
-0.873,0.427,-0.085,-24.92,-2.31,-17.64,-0.219,-0.22,-0.815
-0.858,0.414,-0.075,-16.24,-6.02,-17.08,-0.216,-0.223,-0.813
-0.852,0.405,-0.061,-9.31,-9.45,-15.75,-0.215,-0.225,-0.81
-0.869,0.403,-0.051,-7.42,-10.5,-14.77,-0.215,-0.226,-0.813
-0.891,0.394,-0.047,-5.6,-10.43,-13.16,-0.216,-0.226,-0.807
-0.901,0.378,-0.046,-6.23,-10.22,-11.62,-0.213,-0.231,-0.811
-0.883,0.376,-0.046,-8.61,-9.17,-9.94,-0.217,-0.231,-0.807
-0.855,0.389,-0.048,-9.59,-8.82,-9.24,-0.218,-0.233,-0.808
-0.836,0.402,-0.043,-3.36,-10.01,-8.61,-0.215,-0.229,-0.797
-0.838,0.399,-0.042,3.92,-10.92,-8.19,-0.217,-0.233,-0.796
-0.865,0.39,-0.041,10.57,-10.78,-7.7,-0.215,-0.234,-0.799
-0.915,0.373,-0.044,14.28,-9.59,-7.14,-0.215,-0.233,-0.801
-0.965,0.354,-0.045,11.76,-6.72,-7.35,-0.211,-0.233,-0.798
-0.984,0.349,-0.057,5.11,-3.5,-7.56,-0.212,-0.238,-0.798
-0.97,0.355,-0.058,-5.04,0.28,-8.19,-0.213,-0.243,-0.797
-0.914,0.375,-0.071,-7.7,1.05,-9.03,-0.21,-0.241,-0.8
-0.937,0.379,-0.075,-6.37,0.7,-9.73,-0.211,-0.244,-0.796
-0.961,0.366,-0.081,-4.34,0.28,-10.29,-0.213,-0.242,-0.803
-0.982,0.356,-0.082,-3.78,0.7,-9.1,-0.213,-0.235,-0.807
-0.971,0.341,-0.084,-4.9,1.75,-7.7,-0.212,-0.244,-0.803
-0.939,0.342,-0.085,-6.79,2.66,-5.81,-0.213,-0.241,-0.807
-0.88,0.363,-0.087,-6.72,2.24,-4.55,-0.212,-0.238,-0.806
-0.897,0.366,-0.081,-2.73,1.33,-3.22,-0.213,-0.244,-0.801
